File: Glass OH Content/FTIR/Corning 7980.DPT
1998.13	0.00008
2000.05	0.00010
2001.98	0.00009
2003.91	0.00006
2005.84	0.00004
2007.77	0.00004
2009.7	0.00006
2011.63	0.00006
2013.56	0.00009
2015.48	0.00011
2017.41	0.00012
2019.34	0.00013
2021.27	0.00012
2023.2	0.00010
2025.13	0.00010
2027.06	0.00009
2028.98	0.00009
2030.91	0.00011
2032.84	0.00014
2034.77	0.00015
2036.7	0.00017
2038.63	0.00019
2040.56	0.00023
2042.49	0.00031
2044.41	0.00040
2046.34	0.00051
2048.27	0.00070
2050.2	0.00097
2052.13	0.00133
2054.06	0.00182
2055.99	0.00248
2057.91	0.00332
2059.84	0.00437
2061.77	0.00569
2063.7	0.00736
2065.63	0.00953
2067.56	0.01223
2069.49	0.01546
2071.42	0.01931
2073.34	0.02389
2075.27	0.02927
2077.2	0.03548
2079.13	0.04254
2081.06	0.05047
2082.99	0.05927
2084.92	0.06892
2086.85	0.07933
2088.77	0.09048
2090.7	0.10234
2092.63	0.11474
2094.56	0.12752
2096.49	0.14062
2098.42	0.15391
2100.35	0.16727
2102.27	0.18059
2104.2	0.19375
2106.13	0.20666
2108.06	0.21928
2109.99	0.23154
2111.92	0.24335
2113.85	0.25472
2115.78	0.26562
2117.7	0.27600
2119.63	0.28587
2121.56	0.29530
2123.49	0.30432
2125.42	0.31291
2127.35	0.32111
2129.28	0.32893
2131.21	0.33639
2133.13	0.34356
2135.06	0.35047
2136.99	0.35715
2138.92	0.36360
2140.85	0.36980
2142.78	0.37573
2144.71	0.38147
2146.63	0.38709
2148.56	0.39257
2150.49	0.39786
2152.42	0.40297
2154.35	0.40791
2156.28	0.41266
2158.21	0.41723
2160.14	0.42163
2162.06	0.42589
2163.99	0.42997
2165.92	0.43381
2167.85	0.43740
2169.78	0.44080
2171.71	0.44397
2173.64	0.44687
2175.57	0.44950
2177.49	0.45188
2179.42	0.45398
2181.35	0.45579
2183.28	0.45733
2185.21	0.45855
2187.14	0.45943
2189.07	0.45998
2190.99	0.46021
2192.92	0.46012
2194.85	0.45967
2196.78	0.45886
2198.71	0.45775
2200.64	0.45630
2202.57	0.45452
2204.5	0.45248
2206.42	0.45018
2208.35	0.44757
2210.28	0.44470
2212.21	0.44160
2214.14	0.43830
2216.07	0.43485
2218	0.43124
2219.93	0.42747
2221.85	0.42358
2223.78	0.41963
2225.71	0.41565
2227.64	0.41163
2229.57	0.40759
2231.5	0.40360
2233.43	0.39974
2235.35	0.39600
2237.28	0.39236
2239.21	0.38884
2241.14	0.38548
2243.07	0.38234
2245	0.37941
2246.93	0.37666
2248.86	0.37411
2250.78	0.37185
2252.71	0.36989
2254.64	0.36821
2256.57	0.36675
2258.5	0.36554
2260.43	0.36464
2262.36	0.36405
2264.29	0.36377
2266.21	0.36378
2268.14	0.36414
2270.07	0.36486
2272	0.36590
2273.93	0.36718
2275.86	0.36877
2277.79	0.37071
2279.71	0.37298
2281.64	0.37556
2283.57	0.37842
2285.5	0.38156
2287.43	0.38502
2289.36	0.38877
2291.29	0.39280
2293.22	0.39712
2295.14	0.40172
2297.07	0.40654
2299	0.41156
2300.93	0.41678
2302.86	0.42224
2304.79	0.42800
2306.72	0.43398
2308.65	0.44001
2310.57	0.44616
2312.5	0.45258
2314.43	0.45910
2316.36	0.46559
2318.29	0.47213
2320.22	0.47880
2322.15	0.48561
2324.07	0.49256
2326	0.49938
2327.93	0.50592
2329.86	0.51257
2331.79	0.51934
2333.72	0.52583
2335.65	0.53200
2337.58	0.53804
2339.5	0.54392
2341.43	0.54965
2343.36	0.55555
2345.29	0.56183
2347.22	0.56748
2349.15	0.57176
2351.08	0.57537
2353	0.57906
2354.93	0.58281
2356.86	0.58647
2358.79	0.59008
2360.72	0.59365
2362.65	0.59723
2364.58	0.60079
2366.51	0.60418
2368.43	0.60726
2370.36	0.61008
2372.29	0.61283
2374.22	0.61566
2376.15	0.61834
2378.08	0.62068
2380.01	0.62274
2381.94	0.62467
2383.86	0.62653
2385.79	0.62828
2387.72	0.62990
2389.65	0.63148
2391.58	0.63308
2393.51	0.63472
2395.44	0.63636
2397.36	0.63800
2399.29	0.63968
2401.22	0.64146
2403.15	0.64332
2405.08	0.64522
2407.01	0.64716
2408.94	0.64916
2410.87	0.65124
2412.79	0.65336
2414.72	0.65555
2416.65	0.65781
2418.58	0.66017
2420.51	0.66259
2422.44	0.66507
2424.37	0.66761
2426.3	0.67018
2428.22	0.67281
2430.15	0.67554
2432.08	0.67833
2434.01	0.68112
2435.94	0.68391
2437.87	0.68671
2439.8	0.68952
2441.72	0.69231
2443.65	0.69514
2445.58	0.69802
2447.51	0.70088
2449.44	0.70371
2451.37	0.70653
2453.3	0.70935
2455.23	0.71218
2457.15	0.71500
2459.08	0.71775
2461.01	0.72045
2462.94	0.72314
2464.87	0.72581
2466.8	0.72846
2468.73	0.73104
2470.66	0.73349
2472.58	0.73586
2474.51	0.73822
2476.44	0.74052
2478.37	0.74269
2480.3	0.74481
2482.23	0.74688
2484.16	0.74886
2486.08	0.75078
2488.01	0.75272
2489.94	0.75460
2491.87	0.75631
2493.8	0.75786
2495.73	0.75931
2497.66	0.76077
2499.59	0.76224
2501.51	0.76365
2503.44	0.76494
2505.37	0.76615
2507.3	0.76728
2509.23	0.76830
2511.16	0.76925
2513.09	0.77018
2515.02	0.77107
2516.94	0.77184
2518.87	0.77253
2520.8	0.77325
2522.73	0.77398
2524.66	0.77463
2526.59	0.77517
2528.52	0.77565
2530.44	0.77616
2532.37	0.77668
2534.3	0.77717
2536.23	0.77766
2538.16	0.77811
2540.09	0.77850
2542.02	0.77887
2543.95	0.77925
2545.87	0.77963
2547.8	0.77998
2549.73	0.78024
2551.66	0.78048
2553.59	0.78075
2555.52	0.78102
2557.45	0.78133
2559.38	0.78167
2561.3	0.78195
2563.23	0.78220
2565.16	0.78247
2567.09	0.78274
2569.02	0.78300
2570.95	0.78325
2572.88	0.78349
2574.8	0.78373
2576.73	0.78394
2578.66	0.78416
2580.59	0.78443
2582.52	0.78468
2584.45	0.78484
2586.38	0.78498
2588.31	0.78517
2590.23	0.78533
2592.16	0.78548
2594.09	0.78561
2596.02	0.78570
2597.95	0.78577
2599.88	0.78582
2601.81	0.78584
2603.73	0.78581
2605.66	0.78574
2607.59	0.78561
2609.52	0.78546
2611.45	0.78534
2613.38	0.78521
2615.31	0.78500
2617.24	0.78474
2619.16	0.78454
2621.09	0.78436
2623.02	0.78412
2624.95	0.78383
2626.88	0.78347
2628.81	0.78312
2630.74	0.78283
2632.67	0.78255
2634.59	0.78220
2636.52	0.78184
2638.45	0.78151
2640.38	0.78126
2642.31	0.78104
2644.24	0.78079
2646.17	0.78056
2648.09	0.78042
2650.02	0.78036
2651.95	0.78034
2653.88	0.78034
2655.81	0.78038
2657.74	0.78046
2659.67	0.78067
2661.6	0.78099
2663.52	0.78137
2665.45	0.78184
2667.38	0.78239
2669.31	0.78304
2671.24	0.78383
2673.17	0.78465
2675.1	0.78546
2677.03	0.78635
2678.95	0.78737
2680.88	0.78855
2682.81	0.78990
2684.74	0.79132
2686.67	0.79280
2688.6	0.79433
2690.53	0.79590
2692.45	0.79753
2694.38	0.79921
2696.31	0.80094
2698.24	0.80273
2700.17	0.80461
2702.1	0.80659
2704.03	0.80856
2705.96	0.81046
2707.88	0.81238
2709.81	0.81438
2711.74	0.81643
2713.67	0.81846
2715.6	0.82045
2717.53	0.82244
2719.46	0.82448
2721.39	0.82651
2723.31	0.82845
2725.24	0.83032
2727.17	0.83218
2729.1	0.83404
2731.03	0.83586
2732.96	0.83760
2734.89	0.83931
2736.81	0.84100
2738.74	0.84265
2740.67	0.84422
2742.6	0.84575
2744.53	0.84725
2746.46	0.84866
2748.39	0.84999
2750.32	0.85131
2752.24	0.85257
2754.17	0.85372
2756.1	0.85480
2758.03	0.85584
2759.96	0.85686
2761.89	0.85782
2763.82	0.85871
2765.75	0.85956
2767.67	0.86038
2769.6	0.86114
2771.53	0.86190
2773.46	0.86271
2775.39	0.86351
2777.32	0.86427
2779.25	0.86496
2781.17	0.86566
2783.1	0.86644
2785.03	0.86717
2786.96	0.86777
2788.89	0.86831
2790.82	0.86892
2792.75	0.86959
2794.68	0.87034
2796.6	0.87119
2798.53	0.87202
2800.46	0.87273
2802.39	0.87344
2804.32	0.87420
2806.25	0.87499
2808.18	0.87575
2810.11	0.87645
2812.03	0.87719
2813.96	0.87814
2815.89	0.87919
2817.82	0.88019
2819.75	0.88110
2821.68	0.88194
2823.61	0.88272
2825.53	0.88350
2827.46	0.88433
2829.39	0.88527
2831.32	0.88634
2833.25	0.88737
2835.18	0.88824
2837.11	0.88910
2839.04	0.89001
2840.96	0.89085
2842.89	0.89162
2844.82	0.89233
2846.75	0.89289
2848.68	0.89336
2850.61	0.89395
2852.54	0.89477
2854.47	0.89580
2856.39	0.89689
2858.32	0.89798
2860.25	0.89901
2862.18	0.89999
2864.11	0.90096
2866.04	0.90186
2867.97	0.90259
2869.89	0.90327
2871.82	0.90404
2873.75	0.90480
2875.68	0.90546
2877.61	0.90609
2879.54	0.90669
2881.47	0.90727
2883.4	0.90783
2885.32	0.90831
2887.25	0.90876
2889.18	0.90930
2891.11	0.90988
2893.04	0.91035
2894.97	0.91071
2896.9	0.91101
2898.82	0.91124
2900.75	0.91145
2902.68	0.91171
2904.61	0.91193
2906.54	0.91209
2908.47	0.91228
2910.4	0.91249
2912.33	0.91253
2914.25	0.91233
2916.18	0.91205
2918.11	0.91196
2920.04	0.91208
2921.97	0.91229
2923.9	0.91260
2925.83	0.91307
2927.76	0.91360
2929.68	0.91409
2931.61	0.91456
2933.54	0.91506
2935.47	0.91549
2937.4	0.91578
2939.33	0.91605
2941.26	0.91636
2943.18	0.91669
2945.11	0.91702
2947.04	0.91726
2948.97	0.91743
2950.9	0.91761
2952.83	0.91782
2954.76	0.91795
2956.69	0.91794
2958.61	0.91787
2960.54	0.91783
2962.47	0.91795
2964.4	0.91825
2966.33	0.91861
2968.26	0.91889
2970.19	0.91906
2972.12	0.91922
2974.04	0.91937
2975.97	0.91952
2977.9	0.91971
2979.83	0.91984
2981.76	0.91985
2983.69	0.91979
2985.62	0.91973
2987.54	0.91976
2989.47	0.91992
2991.4	0.92015
2993.33	0.92033
2995.26	0.92036
2997.19	0.92026
2999.12	0.92013
3001.05	0.92010
3002.97	0.92017
3004.9	0.92025
3006.83	0.92027
3008.76	0.92024
3010.69	0.92025
3012.62	0.92033
3014.55	0.92035
3016.48	0.92030
3018.4	0.92026
3020.33	0.92023
3022.26	0.92017
3024.19	0.92011
3026.12	0.92001
3028.05	0.91991
3029.98	0.91989
3031.9	0.91993
3033.83	0.91992
3035.76	0.91978
3037.69	0.91964
3039.62	0.91965
3041.55	0.91971
3043.48	0.91969
3045.41	0.91961
3047.33	0.91951
3049.26	0.91938
3051.19	0.91923
3053.12	0.91907
3055.05	0.91892
3056.98	0.91878
3058.91	0.91872
3060.84	0.91876
3062.76	0.91888
3064.69	0.91900
3066.62	0.91899
3068.55	0.91885
3070.48	0.91860
3072.41	0.91836
3074.34	0.91823
3076.26	0.91821
3078.19	0.91821
3080.12	0.91813
3082.05	0.91803
3083.98	0.91804
3085.91	0.91808
3087.84	0.91793
3089.77	0.91761
3091.69	0.91734
3093.62	0.91715
3095.55	0.91697
3097.48	0.91687
3099.41	0.91685
3101.34	0.91680
3103.27	0.91675
3105.2	0.91674
3107.12	0.91671
3109.05	0.91659
3110.98	0.91639
3112.91	0.91629
3114.84	0.91634
3116.77	0.91645
3118.7	0.91645
3120.62	0.91629
3122.55	0.91600
3124.48	0.91564
3126.41	0.91533
3128.34	0.91526
3130.27	0.91530
3132.2	0.91520
3134.13	0.91503
3136.05	0.91492
3137.98	0.91484
3139.91	0.91469
3141.84	0.91444
3143.77	0.91422
3145.7	0.91411
3147.63	0.91404
3149.55	0.91400
3151.48	0.91395
3153.41	0.91384
3155.34	0.91361
3157.27	0.91327
3159.2	0.91299
3161.13	0.91281
3163.06	0.91262
3164.98	0.91250
3166.91	0.91245
3168.84	0.91235
3170.77	0.91221
3172.7	0.91210
3174.63	0.91194
3176.56	0.91170
3178.49	0.91149
3180.41	0.91135
3182.34	0.91127
3184.27	0.91123
3186.2	0.91120
3188.13	0.91108
3190.06	0.91084
3191.99	0.91056
3193.91	0.91037
3195.84	0.91028
3197.77	0.91012
3199.7	0.90997
3201.63	0.91003
3203.56	0.91020
3205.49	0.91013
3207.42	0.90980
3209.34	0.90951
3211.27	0.90933
3213.2	0.90920
3215.13	0.90910
3217.06	0.90911
3218.99	0.90915
3220.92	0.90903
3222.85	0.90875
3224.77	0.90849
3226.7	0.90831
3228.63	0.90825
3230.56	0.90828
3232.49	0.90826
3234.42	0.90806
3236.35	0.90773
3238.27	0.90741
3240.2	0.90722
3242.13	0.90710
3244.06	0.90706
3245.99	0.90708
3247.92	0.90693
3249.85	0.90647
3251.78	0.90613
3253.7	0.90617
3255.63	0.90620
3257.56	0.90592
3259.49	0.90545
3261.42	0.90505
3263.35	0.90478
3265.28	0.90456
3267.21	0.90440
3269.13	0.90443
3271.06	0.90446
3272.99	0.90425
3274.92	0.90384
3276.85	0.90339
3278.78	0.90301
3280.71	0.90264
3282.63	0.90233
3284.56	0.90203
3286.49	0.90171
3288.42	0.90155
3290.35	0.90151
3292.28	0.90127
3294.21	0.90088
3296.14	0.90046
3298.06	0.89999
3299.99	0.89960
3301.92	0.89938
3303.85	0.89920
3305.78	0.89891
3307.71	0.89856
3309.64	0.89815
3311.57	0.89754
3313.49	0.89684
3315.42	0.89630
3317.35	0.89587
3319.28	0.89535
3321.21	0.89479
3323.14	0.89440
3325.07	0.89418
3326.99	0.89381
3328.92	0.89319
3330.85	0.89258
3332.78	0.89208
3334.71	0.89170
3336.64	0.89147
3338.57	0.89114
3340.5	0.89061
3342.42	0.88998
3344.35	0.88920
3346.28	0.88836
3348.21	0.88774
3350.14	0.88730
3352.07	0.88670
3354	0.88592
3355.93	0.88516
3357.85	0.88461
3359.78	0.88414
3361.71	0.88347
3363.64	0.88269
3365.57	0.88204
3367.5	0.88140
3369.43	0.88056
3371.35	0.87952
3373.28	0.87840
3375.21	0.87740
3377.14	0.87653
3379.07	0.87566
3381	0.87475
3382.93	0.87369
3384.86	0.87262
3386.78	0.87167
3388.71	0.87086
3390.64	0.87013
3392.57	0.86917
3394.5	0.86786
3396.43	0.86650
3398.36	0.86539
3400.29	0.86442
3402.21	0.86321
3404.14	0.86159
3406.07	0.85995
3408	0.85859
3409.93	0.85731
3411.86	0.85592
3413.79	0.85431
3415.71	0.85252
3417.64	0.85073
3419.57	0.84906
3421.5	0.84745
3423.43	0.84576
3425.36	0.84403
3427.29	0.84232
3429.22	0.84068
3431.14	0.83897
3433.07	0.83709
3435	0.83505
3436.93	0.83283
3438.86	0.83051
3440.79	0.82813
3442.72	0.82567
3444.64	0.82320
3446.57	0.82069
3448.5	0.81804
3450.43	0.81546
3452.36	0.81291
3454.29	0.81020
3456.22	0.80736
3458.15	0.80451
3460.07	0.80167
3462	0.79855
3463.93	0.79528
3465.86	0.79214
3467.79	0.78893
3469.72	0.78536
3471.65	0.78145
3473.58	0.77746
3475.5	0.77340
3477.43	0.76938
3479.36	0.76531
3481.29	0.76064
3483.22	0.75556
3485.15	0.75073
3487.08	0.74581
3489	0.74031
3490.93	0.73474
3492.86	0.72935
3494.79	0.72373
3496.72	0.71757
3498.65	0.71119
3500.58	0.70491
3502.51	0.69792
3504.43	0.68999
3506.36	0.68239
3508.29	0.67491
3510.22	0.66656
3512.15	0.65801
3514.08	0.64962
3516.01	0.64072
3517.94	0.63126
3519.86	0.62183
3521.79	0.61247
3523.72	0.60227
3525.65	0.59144
3527.58	0.58040
3529.51	0.56881
3531.44	0.55742
3533.36	0.54661
3535.29	0.53541
3537.22	0.52308
3539.15	0.51092
3541.08	0.49967
3543.01	0.48832
3544.94	0.47546
3546.87	0.46097
3548.79	0.44772
3550.72	0.43592
3552.65	0.42300
3554.58	0.40944
3556.51	0.39711
3558.44	0.38514
3560.37	0.37278
3562.3	0.36076
3564.22	0.34966
3566.15	0.33708
3568.08	0.32130
3570.01	0.30847
3571.94	0.29853
3573.87	0.28832
3575.8	0.27739
3577.72	0.26649
3579.65	0.25591
3581.58	0.24578
3583.51	0.23674
3585.44	0.22824
3587.37	0.21760
3589.3	0.20609
3591.23	0.19806
3593.15	0.19084
3595.08	0.18228
3597.01	0.17389
3598.94	0.16648
3600.87	0.15905
3602.8	0.15181
3604.73	0.14573
3606.66	0.13982
3608.58	0.13294
3610.51	0.12645
3612.44	0.12081
3614.37	0.11495
3616.3	0.10975
3618.23	0.10486
3620.16	0.09878
3622.08	0.09370
3624.01	0.08996
3625.94	0.08675
3627.87	0.08284
3629.8	0.07687
3631.73	0.07233
3633.66	0.06900
3635.59	0.06568
3637.51	0.06249
3639.44	0.05959
3641.37	0.05672
3643.3	0.05411
3645.23	0.05187
3647.16	0.04961
3649.09	0.04665
3651.02	0.04329
3652.94	0.04172
3654.87	0.04048
3656.8	0.03895
3658.73	0.03734
3660.66	0.03608
3662.59	0.03509
3664.52	0.03417
3666.44	0.03364
3668.37	0.03316
3670.3	0.03287
3672.23	0.03246
3674.16	0.03244
3676.09	0.03290
3678.02	0.03341
3679.95	0.03427
3681.87	0.03519
3683.8	0.03655
3685.73	0.03793
3687.66	0.04015
3689.59	0.04412
3691.52	0.04922
3693.45	0.05397
3695.37	0.05926
3697.3	0.06652
3699.23	0.07501
3701.16	0.08721
3703.09	0.10425
3705.02	0.12209
3706.95	0.14028
3708.88	0.16273
3710.8	0.19903
3712.73	0.25061
3714.66	0.29431
3716.59	0.33143
3718.52	0.37363
3720.45	0.42123
3722.38	0.47099
3724.31	0.51910
3726.23	0.56263
3728.16	0.59833
3730.09	0.62293
3732.02	0.64373
3733.95	0.66610
3735.88	0.68925
3737.81	0.70665
3739.73	0.71617
3741.66	0.72310
3743.59	0.73053
3745.52	0.74114
3747.45	0.74879
3749.38	0.75358
3751.31	0.76140
3753.24	0.76980
3755.16	0.77515
3757.09	0.77900
3759.02	0.78355
3760.95	0.78822
3762.88	0.79183
3764.81	0.79488
3766.74	0.79820
3768.67	0.80159
3770.59	0.80467
3772.52	0.80729
3774.45	0.80933
3776.38	0.81163
3778.31	0.81421
3780.24	0.81669
3782.17	0.81818
3784.09	0.81929
3786.02	0.82098
3787.95	0.82265
3789.88	0.82416
3791.81	0.82536
3793.74	0.82629
3795.67	0.82703
3797.6	0.82803
3799.52	0.82922
3801.45	0.83018
3803.38	0.83121
3805.31	0.83212
3807.24	0.83329
3809.17	0.83420
3811.1	0.83479
3813.03	0.83529
3814.95	0.83588
3816.88	0.83675
3818.81	0.83717
3820.74	0.83727
3822.67	0.83794
3824.6	0.83899
3826.53	0.83957
3828.45	0.83992
3830.38	0.84027
3832.31	0.84071
3834.24	0.84153
3836.17	0.84202
3838.1	0.84200
3840.03	0.84234
3841.96	0.84351
3843.88	0.84481
3845.81	0.84582
3847.74	0.84635
3849.67	0.84636
3851.6	0.84595
3853.53	0.84543
3855.46	0.84670
3857.39	0.84804
3859.31	0.84872
3861.24	0.84908
3863.17	0.84948
3865.1	0.85021
3867.03	0.85080
3868.96	0.85127
3870.89	0.85177
3872.81	0.85244
3874.74	0.85343
3876.67	0.85445
3878.6	0.85498
3880.53	0.85534
3882.46	0.85643
3884.39	0.85775
3886.32	0.85854
3888.24	0.85870
3890.17	0.85891
3892.1	0.85953
3894.03	0.86042
3895.96	0.86112
3897.89	0.86143
3899.82	0.86167
3901.75	0.86232
3903.67	0.86343
3905.6	0.86450
3907.53	0.86538
3909.46	0.86615
3911.39	0.86686
3913.32	0.86761
3915.25	0.86834
3917.17	0.86910
3919.1	0.86993
3921.03	0.87072
3922.96	0.87131
3924.89	0.87187
3926.82	0.87274
3928.75	0.87375
3930.68	0.87475
3932.6	0.87566
3934.53	0.87631
3936.46	0.87680
3938.39	0.87742
3940.32	0.87807
3942.25	0.87863
3944.18	0.87919
3946.11	0.87971
3948.03	0.88028
3949.96	0.88095
3951.89	0.88173
3953.82	0.88246
3955.75	0.88306
3957.68	0.88368
3959.61	0.88435
3961.53	0.88511
3963.46	0.88583
3965.39	0.88655
3967.32	0.88733
3969.25	0.88791
3971.18	0.88830
3973.11	0.88884
3975.04	0.88961
3976.96	0.89042
3978.89	0.89111
3980.82	0.89170
3982.75	0.89241
3984.68	0.89309
3986.61	0.89343
3988.54	0.89357
3990.46	0.89381
3992.39	0.89427
3994.32	0.89489
3996.25	0.89546