File: Glass/OH Content/UVVIS/Transmission/data/Green Float.Sample.Raw.asc
PE UV       SUBTECH     SPECTRUM    ASCII       PEDS        4.00
   -1
Green __Green Float.Sample.Raw.asc
17/06/21
15:16:47.00
17/06/21
15:16:47.00
Administrator

250
1
Lambda 950
950L1205241
PerkinElmer UV WinLab 6.0.4.0738 / 1.61.00 Lambda 900

0
0
3350/servo 860.8/2
0
0
UV/VIS
1
1
1
DoublePol,CommonBeamDepol,RBeamAtt,SBeamAtt,uv/vis/nir detector
0
0
0
0
Program
Program
3350/servo 860.8/2
3350/0.2 860.8/0.2
3350/0.2 860.8/0.2
0
1

0

860.8
319.2
860.8
Front
100
on
S:100 R:100
0
0
0
0

0

0

0
0
0
0
0

0
0

0
0
#HDR
-1
-1
#GR
nm
%T
1.0
0.0
3300
-1.000000
3051
8
91.2868
-0.003367
#DATA
3300	62.9615
3297	62.8087
3294	62.9547
3291	63.0437
3288	63.0225
3285	63.118
3282	63.1887
3279	63.1861
3276	63.2592
3273	63.2568
3270	63.3682
3267	63.4462
3264	63.3846
3261	63.4632
3258	63.512
3255	63.5379
3252	63.6388
3249	63.6948
3246	63.7276
3243	63.7566
3240	63.8418
3237	63.896
3234	63.9099
3231	63.972
3228	64.053
3225	64.131
3222	64.1621
3219	64.1808
3216	64.2289
3213	64.2873
3210	64.3566
3207	64.4335
3204	64.477
3201	64.5661
3198	64.5656
3195	64.6542
3192	64.6602
3189	64.7251
3186	64.7554
3183	64.8604
3180	64.912
3177	64.9457
3174	64.9811
3171	65.0405
3168	65.0794
3165	65.166
3162	65.2061
3159	65.2766
3156	65.304
3153	65.3762
3150	65.4281
3147	65.4693
3144	65.4934
3141	65.535
3138	65.5457
3135	65.5892
3132	65.6246
3129	65.6822
3126	65.6923
3123	65.741
3120	65.7932
3117	65.7907
3114	65.8567
3111	65.8869
3108	65.8839
3105	65.9145
3102	65.9354
3099	65.9599
3096	65.9884
3093	65.9852
3090	66.0012
3087	66.0121
3084	66.02
3081	66.0586
3078	66.0532
3075	66.0499
3072	66.0867
3069	66.0935
3066	66.0936
3063	66.0866
3060	66.0885
3057	66.0582
3054	66.062
3051	66.0389
3048	66.0541
3045	66.0548
3042	66.032
3039	66.0207
3036	66.0251
3033	65.9916
3030	65.9919
3027	65.96
3024	65.9421
3021	65.9239
3018	65.8838
3015	65.8615
3012	65.8182
3009	65.7792
3006	65.7585
3003	65.7113
3000	65.6956
2997	65.6291
2994	65.5831
2991	65.5407
2988	65.5158
2985	65.4689
2982	65.4317
2979	65.3905
2976	65.3477
2973	65.2835
2970	65.2313
2967	65.1747
2964	65.1116
2961	65.0573
2958	65.0102
2955	64.9666
2952	64.9904
2949	64.9574
2946	64.8439
2943	64.8003
2940	64.7249
2937	64.6852
2934	64.6258
2931	64.5596
2928	64.5084
2925	64.4453
2922	64.3784
2919	64.3347
2916	64.2639
2913	64.2351
2910	64.169
2907	64.1156
2904	64.0548
2901	63.991
2898	63.9431
2895	63.917
2892	63.8696
2889	63.8266
2886	63.7905
2883	63.7633
2880	63.7232
2877	63.6834
2874	63.6649
2871	63.6439
2868	63.603
2865	63.6072
2862	63.6172
2859	63.6303
2856	63.6361
2853	63.6003
2850	63.5969
2847	63.6238
2844	63.6614
2841	63.7013
2838	63.7453
2835	63.7561
2832	63.79
2829	63.8804
2826	64.0123
2823	64.1059
2820	64.1934
2817	64.3169
2814	64.4839
2811	64.6012
2808	64.7857
2805	64.9848
2802	65.2566
2799	65.5828
2796	65.9104
2793	66.1941
2790	66.5122
2787	66.8011
2784	67.1963
2781	67.7453
2778	68.2655
2775	68.7316
2772	69.2837
2769	69.8107
2766	70.4591
2763	71.211
2760	72.1428
2757	73.0892
2754	74.1776
2751	75.1789
2748	76.0736
2745	76.6622
2742	77.4475
2739	78.5811
2736	80.0811
2733	81.2924
2730	81.9353
2727	82.5542
2724	83.0807
2721	83.9591
2718	85.1014
2715	86.0278
2712	86.6653
2709	87.2199
2706	87.7069
2703	88.1161
2700	88.3123
2697	88.5485
2694	88.7375
2691	88.8665
2688	88.8942
2685	88.961
2682	89.0994
2679	89.2036
2676	89.3483
2673	89.3955
2670	89.5569
2667	89.6909
2664	89.7638
2661	89.8677
2658	89.8814
2655	89.8628
2652	89.8061
2649	89.7455
2646	89.7289
2643	89.7443
2640	89.7776
2637	89.8275
2634	89.8812
2631	89.8338
2628	89.8014
2625	89.8655
2622	89.9537
2619	89.9738
2616	89.9385
2613	90.0179
2610	90.0963
2607	90.1839
2604	90.2088
2601	90.1923
2598	90.1331
2595	90.0807
2592	90.0295
2589	90.0492
2586	89.9686
2583	90.0628
2580	90.0299
2577	90.0463
2574	90.0744
2571	90.1328
2568	90.1253
2565	90.0433
2562	89.9928
2559	90.0508
2556	90.0682
2553	90.0664
2550	89.9987
2547	90.0326
2544	90.0859
2541	90.0743
2538	90.1133
2535	90.1421
2532	90.0633
2529	90.0269
2526	90.1013
2523	90.1202
2520	90.1641
2517	90.1871
2514	90.1587
2511	90.1349
2508	90.149
2505	90.1752
2502	90.1732
2499	90.1839
2496	90.216
2493	90.2362
2490	90.2154
2487	90.2183
2484	90.21
2481	90.2467
2478	90.2722
2475	90.2872
2472	90.2977
2469	90.28
2466	90.2744
2463	90.3124
2460	90.3195
2457	90.3175
2454	90.3499
2451	90.3535
2448	90.3832
2445	90.3762
2442	90.389
2439	90.4109
2436	90.4093
2433	90.4169
2430	90.4491
2427	90.4745
2424	90.4826
2421	90.5113
2418	90.5138
2415	90.513
2412	90.5325
2409	90.5598
2406	90.5602
2403	90.5603
2400	90.5592
2397	90.5563
2394	90.5696
2391	90.575
2388	90.5675
2385	90.5742
2382	90.5956
2379	90.6001
2376	90.5726
2373	90.5976
2370	90.5792
2367	90.5876
2364	90.6018
2361	90.6045
2358	90.5899
2355	90.5977
2352	90.6006
2349	90.5972
2346	90.5881
2343	90.5917
2340	90.6086
2337	90.6057
2334	90.591
2331	90.574
2328	90.5726
2325	90.5592
2322	90.559
2319	90.5593
2316	90.5572
2313	90.5506
2310	90.5451
2307	90.5177
2304	90.5117
2301	90.5027
2298	90.5015
2295	90.5056
2292	90.4991
2289	90.4805
2286	90.4679
2283	90.4573
2280	90.4452
2277	90.4514
2274	90.4309
2271	90.4184
2268	90.4049
2265	90.4106
2262	90.3952
2259	90.3731
2256	90.3571
2253	90.3447
2250	90.3522
2247	90.307
2244	90.3315
2241	90.3002
2238	90.2831
2235	90.2923
2232	90.2659
2229	90.2692
2226	90.2594
2223	90.2448
2220	90.2457
2217	90.2502
2214	90.2411
2211	90.267
2208	90.2681
2205	90.2868
2202	90.3141
2199	90.3229
2196	90.3432
2193	90.3833
2190	90.4035
2187	90.4434
2184	90.4658
2181	90.4833
2178	90.5054
2175	90.532
2172	90.5496
2169	90.5735
2166	90.5852
2163	90.6034
2160	90.6096
2157	90.6143
2154	90.6362
2151	90.6184
2148	90.627
2145	90.6259
2142	90.6399
2139	90.6462
2136	90.6585
2133	90.6628
2130	90.672
2127	90.6624
2124	90.6696
2121	90.6621
2118	90.6609
2115	90.6703
2112	90.6629
2109	90.6781
2106	90.6598
2103	90.6706
2100	90.6549
2097	90.6563
2094	90.6523
2091	90.6697
2088	90.6479
2085	90.6505
2082	90.6644
2079	90.6637
2076	90.6384
2073	90.6394
2070	90.6398
2067	90.659
2064	90.6261
2061	90.6609
2058	90.6533
2055	90.6311
2052	90.6368
2049	90.6545
2046	90.6285
2043	90.6347
2040	90.6387
2037	90.6096
2034	90.6265
2031	90.5887
2028	90.6201
2025	90.604
2022	90.5989
2019	90.6047
2016	90.5983
2013	90.6041
2010	90.6168
2007	90.5929
2004	90.5987
2001	90.5763
1998	90.6037
1995	90.5987
1992	90.6145
1989	90.575
1986	90.6251
1983	90.6189
1980	90.6334
1977	90.5847
1974	90.5966
1971	90.5924
1968	90.5844
1965	90.6041
1962	90.5755
1959	90.594
1956	90.5824
1953	90.5896
1950	90.5639
1947	90.579
1944	90.6376
1941	90.5879
1938	90.5906
1935	90.5978
1932	90.6155
1929	90.608
1926	90.5667
1923	90.6299
1920	90.6296
1917	90.5754
1914	90.6427
1911	90.5626
1908	90.6159
1905	90.6691
1902	90.6026
1899	90.6897
1896	90.5893
1893	90.6821
1890	90.6178
1887	90.6141
1884	90.6366
1881	90.6058
1878	90.6504
1875	90.6727
1872	90.6727
1869	90.5534
1866	90.6386
1863	90.6633
1860	90.6191
1857	90.5867
1854	90.6951
1851	90.6304
1848	90.7652
1845	90.6456
1842	90.8014
1839	90.6148
1836	90.6764
1833	90.6387
1830	90.677
1827	90.63
1824	90.6368
1821	90.7688
1818	90.5988
1815	90.717
1812	90.673
1809	90.7504
1806	90.6725
1803	90.6766
1800	90.6739
1797	90.6667
1794	90.7098
1791	90.6855
1788	90.6723
1785	90.6853
1782	90.6983
1779	90.6907
1776	90.6935
1773	90.6908
1770	90.6788
1767	90.6817
1764	90.708
1761	90.7053
1758	90.7226
1755	90.7186
1752	90.702
1749	90.6978
1746	90.7046
1743	90.7017
1740	90.6756
1737	90.7059
1734	90.7057
1731	90.7072
1728	90.7185
1725	90.7054
1722	90.7133
1719	90.7246
1716	90.7162
1713	90.7123
1710	90.7005
1707	90.703
1704	90.7108
1701	90.6967
1698	90.6969
1695	90.7039
1692	90.6861
1689	90.6812
1686	90.6801
1683	90.6965
1680	90.6932
1677	90.6782
1674	90.6637
1671	90.6578
1668	90.6918
1665	90.6652
1662	90.6619
1659	90.6562
1656	90.6735
1653	90.6449
1650	90.6545
1647	90.6256
1644	90.6149
1641	90.6466
1638	90.6228
1635	90.6212
1632	90.6133
1629	90.596
1626	90.5938
1623	90.5939
1620	90.5785
1617	90.5587
1614	90.5634
1611	90.547
1608	90.5455
1605	90.5255
1602	90.5251
1599	90.5233
1596	90.5202
1593	90.4786
1590	90.4919
1587	90.4918
1584	90.4908
1581	90.4635
1578	90.455
1575	90.4348
1572	90.4009
1569	90.4235
1566	90.4101
1563	90.3861
1560	90.3746
1557	90.354
1554	90.3694
1551	90.3385
1548	90.3388
1545	90.307
1542	90.2977
1539	90.2701
1536	90.2534
1533	90.2566
1530	90.2691
1527	90.198
1524	90.2207
1521	90.2204
1518	90.1766
1515	90.1583
1512	90.1466
1509	90.149
1506	90.1318
1503	90.0678
1500	90.0866
1497	90.0716
1494	90.0655
1491	90.0238
1488	90.0087
1485	89.9876
1482	89.9716
1479	90.0048
1476	89.9466
1473	89.973
1470	89.9284
1467	89.8724
1464	89.8689
1461	89.8366
1458	89.8482
1455	89.8306
1452	89.785
1449	89.8587
1446	89.7728
1443	89.7327
1440	89.7097
1437	89.7009
1434	89.6681
1431	89.6989
1428	89.5821
1425	89.5915
1422	89.585
1419	89.6674
1416	89.5167
1413	89.5389
1410	89.5253
1407	89.4683
1404	89.6382
1401	89.5059
1398	89.375
1395	89.5356
1392	89.4102
1389	89.4308
1386	89.3937
1383	89.1494
1380	89.5159
1377	89.3717
1374	89.3802
1371	89.3694
1368	89.3096
1365	89.3053
1362	89.3012
1359	89.1681
1356	89.2977
1353	89.1498
1350	89.1979
1347	89.2115
1344	89.1728
1341	89.1548
1338	89.1523
1335	89.1271
1332	89.0833
1329	89.0972
1326	89.0656
1323	89.0747
1320	89.0628
1317	89.0346
1314	89.0036
1311	88.9822
1308	88.9991
1305	88.9788
1302	88.9612
1299	88.9387
1296	88.9203
1293	88.89
1290	88.9282
1287	88.8867
1284	88.8619
1281	88.8649
1278	88.8247
1275	88.8237
1272	88.8067
1269	88.7833
1266	88.7664
1263	88.777
1260	88.7853
1257	88.7538
1254	88.7079
1251	88.7348
1248	88.7249
1245	88.721
1242	88.7062
1239	88.689
1236	88.7146
1233	88.6806
1230	88.674
1227	88.6492
1224	88.6296
1221	88.636
1218	88.6284
1215	88.6226
1212	88.5975
1209	88.6126
1206	88.5956
1203	88.583
1200	88.5768
1197	88.5629
1194	88.5617
1191	88.5369
1188	88.555
1185	88.534
1182	88.5127
1179	88.5395
1176	88.527
1173	88.5215
1170	88.503
1167	88.4896
1164	88.4647
1161	88.4894
1158	88.476
1155	88.4634
1152	88.4691
1149	88.4658
1146	88.4517
1143	88.4491
1140	88.4364
1137	88.4429
1134	88.3901
1131	88.4527
1128	88.4182
1125	88.3759
1122	88.4402
1119	88.4175
1116	88.4422
1113	88.4209
1110	88.3932
1107	88.4199
1104	88.4072
1101	88.4093
1098	88.4127
1095	88.375
1092	88.3785
1089	88.3975
1086	88.3939
1083	88.3758
1080	88.3957
1077	88.3922
1074	88.3712
1071	88.4047
1068	88.3753
1065	88.3884
1062	88.3945
1059	88.3929
1056	88.3654
1053	88.3759
1050	88.3697
1047	88.3979
1044	88.4033
1041	88.3916
1038	88.3815
1035	88.3835
1032	88.397
1029	88.4098
1026	88.3778
1023	88.4037
1020	88.3873
1017	88.395
1014	88.4115
1011	88.3908
1008	88.3946
1005	88.4266
1002	88.4085
999	88.4392
996	88.4294
993	88.4421
990	88.4226
987	88.4216
984	88.4423
981	88.4689
978	88.4586
975	88.4729
972	88.4903
969	88.4933
966	88.5066
963	88.4801
960	88.5241
957	88.5429
954	88.5212
951	88.5489
948	88.5487
945	88.584
942	88.5662
939	88.5775
936	88.5981
933	88.5951
930	88.6291
927	88.6246
924	88.6286
921	88.6446
918	88.696
915	88.6625
912	88.6862
909	88.6871
906	88.7389
903	88.7446
900	88.7821
897	88.7626
894	88.7881
891	88.8035
888	88.818
885	88.8037
882	88.8652
879	88.8632
876	88.8418
873	88.9036
870	88.9239
867	88.9497
864	88.9612
861	88.9932
858	88.7031
855	88.6604
852	88.6546
849	88.7124
846	88.6591
843	88.7516
840	88.752
837	88.7907
834	88.8195
831	88.8474
828	88.8389
825	88.907
822	88.8947
819	88.9406
816	88.9812
813	88.9788
810	89.02
807	89.047
804	89.1314
801	89.1116
798	89.1501
795	89.192
792	89.1945
789	89.2351
786	89.2955
783	89.2936
780	89.3286
777	89.3709
774	89.3901
771	89.4444
768	89.468
765	89.5109
762	89.5672
759	89.5618
756	89.563
753	89.6757
750	89.6472
747	89.7016
744	89.754
741	89.7749
738	89.8117
735	89.8635
732	89.9256
729	89.9047
726	89.9939
723	89.9966
720	90.0727
717	90.0252
714	90.1257
711	90.148
708	90.1742
705	90.1578
702	90.2517
699	90.23
696	90.2918
693	90.3049
690	90.3822
687	90.3973
684	90.4054
681	90.4552
678	90.4634
675	90.451
672	90.5332
669	90.51
666	90.5912
663	90.6111
660	90.6127
657	90.6155
654	90.681
651	90.6697
648	90.7648
645	90.7381
642	90.7553
639	90.803
636	90.8403
633	90.8059
630	90.8689
627	90.8698
624	90.9146
621	90.944
618	90.9534
615	90.956
612	91.0483
609	90.9858
606	91.0591
603	91.0378
600	91.098
597	91.0841
594	91.1304
591	91.0932
588	91.1357
585	91.1298
582	91.1649
579	91.1582
576	91.1914
573	91.1609
570	91.2212
567	91.2164
564	91.2241
561	91.2495
558	91.2305
555	91.2642
552	91.2443
549	91.2868
546	91.2405
543	91.2814
540	91.2784
537	91.262
534	91.2764
531	91.2751
528	91.2256
525	91.2534
522	91.2687
519	91.2453
516	91.2501
513	91.2759
510	91.2243
507	91.1913
504	91.1716
501	91.1572
498	91.1404
495	91.114
492	91.088
489	91.0973
486	91.026
483	91.0524
480	91.0242
477	91.0326
474	91.0092
471	90.9804
468	90.9458
465	90.9872
462	90.8639
459	90.8227
456	90.8105
453	90.7644
450	90.7063
447	90.6859
444	90.5836
441	90.556
438	90.5557
435	90.5411
432	90.5201
429	90.5289
426	90.4737
423	90.5066
420	90.4414
417	90.4599
414	90.4881
411	90.5437
408	90.5271
405	90.5798
402	90.5656
399	90.4702
396	90.3918
393	90.2238
390	90.0009
387	89.6991
384	89.3505
381	89.1154
378	89.1652
375	89.3585
372	89.549
369	89.488
366	89.3467
363	88.9682
360	88.5058
357	87.8887
354	87.0763
351	85.9898
348	84.6293
345	82.835
342	80.5733
339	77.6929
336	74.0871
333	69.6861
330	64.4473
327	58.2452
324	51.265
321	43.5615
318	35.5343
315	27.5372
312	20.0565
309	13.5524
306	8.388787
303	4.671287
300	2.319856
297	0.999081
294	0.370641
291	0.116956
288	0.030493
285	0.003296
282	0.000926
279	-0.002570
276	0.000924
273	-0.000307
270	0.001841
267	-0.000919
264	0.000510
261	-0.000918
258	0.002958
255	-0.000816
252	0.002960
250	-0.000204