File: Glass OH Content/UVVIS/Transmission/data/Infrasil 301.Sample.Raw.csv
nm, %T
3300, 92.8891
3297, 92.7765
3294, 92.7644
3291, 92.794
3288, 92.8856
3285, 92.8319
3282, 92.8244
3279, 92.831
3276, 92.8075
3273, 92.7918
3270, 92.7225
3267, 92.8189
3264, 92.7667
3261, 92.7649
3258, 92.7421
3255, 92.7726
3252, 92.7863
3249, 92.6963
3246, 92.7542
3243, 92.7352
3240, 92.6954
3237, 92.7121
3234, 92.7475
3231, 92.7202
3228, 92.7187
3225, 92.7126
3222, 92.6621
3219, 92.6352
3216, 92.645
3213, 92.648
3210, 92.6823
3207, 92.6835
3204, 92.6861
3201, 92.6985
3198, 92.6509
3195, 92.6993
3192, 92.6721
3189, 92.6162
3186, 92.6516
3183, 92.6877
3180, 92.662
3177, 92.6031
3174, 92.6287
3171, 92.6473
3168, 92.6034
3165, 92.639
3162, 92.5968
3159, 92.5962
3156, 92.6176
3153, 92.5923
3150, 92.5922
3147, 92.5886
3144, 92.5624
3141, 92.5762
3138, 92.5715
3135, 92.5467
3132, 92.5811
3129, 92.6006
3126, 92.5943
3123, 92.5813
3120, 92.6281
3117, 92.6133
3114, 92.6113
3111, 92.6299
3108, 92.6053
3105, 92.5796
3102, 92.5891
3099, 92.6439
3096, 92.6261
3093, 92.628
3090, 92.6031
3087, 92.626
3084, 92.5908
3081, 92.6257
3078, 92.5877
3075, 92.6124
3072, 92.5913
3069, 92.5908
3066, 92.6299
3063, 92.6052
3060, 92.6195
3057, 92.58
3054, 92.6166
3051, 92.6117
3048, 92.5689
3045, 92.6242
3042, 92.5738
3039, 92.6151
3036, 92.6183
3033, 92.6176
3030, 92.6196
3027, 92.6132
3024, 92.6078
3021, 92.6276
3018, 92.6013
3015, 92.6214
3012, 92.5995
3009, 92.6139
3006, 92.6343
3003, 92.6238
3000, 92.6325
2997, 92.6466
2994, 92.6454
2991, 92.6507
2988, 92.6595
2985, 92.6702
2982, 92.6653
2979, 92.6928
2976, 92.7165
2973, 92.7105
2970, 92.7153
2967, 92.7329
2964, 92.7433
2961, 92.7649
2958, 92.7594
2955, 92.7568
2952, 92.7985
2949, 92.8016
2946, 92.8138
2943, 92.8274
2940, 92.8412
2937, 92.8444
2934, 92.8611
2931, 92.8526
2928, 92.8711
2925, 92.8772
2922, 92.8897
2919, 92.8986
2916, 92.8995
2913, 92.9105
2910, 92.9267
2907, 92.929
2904, 92.9467
2901, 92.9643
2898, 92.9838
2895, 92.9962
2892, 92.9914
2889, 93.0163
2886, 93.0209
2883, 93.0357
2880, 93.0312
2877, 93.0317
2874, 93.046
2871, 93.0901
2868, 93.102
2865, 93.1022
2862, 93.0761
2859, 93.0912
2856, 93.079
2853, 93.0797
2850, 93.1123
2847, 93.1143
2844, 93.1306
2841, 93.1689
2838, 93.1818
2835, 93.2129
2832, 93.2146
2829, 93.2223
2826, 93.2504
2823, 93.2335
2820, 93.2311
2817, 93.2319
2814, 93.2266
2811, 93.1715
2808, 93.1588
2805, 93.1772
2802, 93.242
2799, 93.2895
2796, 93.3366
2793, 93.3203
2790, 93.3133
2787, 93.3021
2784, 93.271
2781, 93.2382
2778, 93.19
2775, 93.1581
2772, 93.1846
2769, 93.1836
2766, 93.1596
2763, 93.1616
2760, 93.112
2757, 93.0923
2754, 93.0932
2751, 93.0593
2748, 93.0491
2745, 92.9996
2742, 93.0045
2739, 92.9864
2736, 92.9975
2733, 93.0054
2730, 92.9671
2727, 92.9487
2724, 92.8973
2721, 92.8717
2718, 92.9353
2715, 93.0021
2712, 92.9991
2709, 93.0612
2706, 93.1013
2703, 93.1217
2700, 93.1205
2697, 93.2003
2694, 93.3764
2691, 93.5489
2688, 93.6618
2685, 93.7513
2682, 93.7962
2679, 93.8806
2676, 93.9525
2673, 93.9352
2670, 93.9227
2667, 93.8724
2664, 93.7975
2661, 93.7805
2658, 93.8311
2655, 93.8771
2652, 93.9241
2649, 93.9183
2646, 93.9124
2643, 93.8746
2640, 93.8566
2637, 93.8609
2634, 93.8512
2631, 93.7673
2628, 93.7889
2625, 93.7955
2622, 93.8497
2619, 93.8556
2616, 93.8573
2613, 93.8444
2610, 93.8049
2607, 93.7532
2604, 93.8003
2601, 93.8033
2598, 93.8778
2595, 93.8691
2592, 93.9073
2589, 93.9684
2586, 94.0003
2583, 94.0207
2580, 93.9697
2577, 93.9198
2574, 93.8827
2571, 93.8601
2568, 93.8177
2565, 93.782
2562, 93.7988
2559, 93.8983
2556, 93.922
2553, 93.8426
2550, 93.799
2547, 93.8362
2544, 93.9144
2541, 93.9292
2538, 93.8668
2535, 93.8421
2532, 93.896
2529, 93.8705
2526, 93.8343
2523, 93.8446
2520, 93.8461
2517, 93.8799
2514, 93.8631
2511, 93.8808
2508, 93.8317
2505, 93.8383
2502, 93.8619
2499, 93.875
2496, 93.8562
2493, 93.8722
2490, 93.8445
2487, 93.8835
2484, 93.8212
2481, 93.839
2478, 93.8766
2475, 93.854
2472, 93.8471
2469, 93.8454
2466, 93.8556
2463, 93.8558
2460, 93.8483
2457, 93.8465
2454, 93.8574
2451, 93.8247
2448, 93.8569
2445, 93.8483
2442, 93.8467
2439, 93.8509
2436, 93.8363
2433, 93.8407
2430, 93.8292
2427, 93.8445
2424, 93.833
2421, 93.8386
2418, 93.8453
2415, 93.8445
2412, 93.8569
2409, 93.8465
2406, 93.837
2403, 93.8322
2400, 93.8403
2397, 93.8503
2394, 93.8597
2391, 93.8446
2388, 93.8472
2385, 93.837
2382, 93.8413
2379, 93.8447
2376, 93.8213
2373, 93.8368
2370, 93.8252
2367, 93.831
2364, 93.8415
2361, 93.8531
2358, 93.8394
2355, 93.8391
2352, 93.8284
2349, 93.8038
2346, 93.8138
2343, 93.8397
2340, 93.8101
2337, 93.8426
2334, 93.8517
2331, 93.8345
2328, 93.8251
2325, 93.8174
2322, 93.8357
2319, 93.8172
2316, 93.8345
2313, 93.8435
2310, 93.8209
2307, 93.8243
2304, 93.8055
2301, 93.8127
2298, 93.8354
2295, 93.7978
2292, 93.8085
2289, 93.8025
2286, 93.7855
2283, 93.8152
2280, 93.7957
2277, 93.7902
2274, 93.7816
2271, 93.8018
2268, 93.7904
2265, 93.8009
2262, 93.7987
2259, 93.7955
2256, 93.797
2253, 93.7875
2250, 93.7923
2247, 93.7807
2244, 93.7926
2241, 93.7931
2238, 93.7918
2235, 93.7874
2232, 93.7765
2229, 93.7871
2226, 93.7763
2223, 93.7779
2220, 93.7675
2217, 93.7802
2214, 93.7628
2211, 93.7698
2208, 93.7664
2205, 93.7537
2202, 93.7686
2199, 93.7646
2196, 93.7731
2193, 93.7721
2190, 93.7701
2187, 93.7802
2184, 93.7714
2181, 93.7656
2178, 93.7663
2175, 93.7609
2172, 93.7612
2169, 93.7699
2166, 93.7742
2163, 93.7788
2160, 93.7739
2157, 93.7625
2154, 93.7807
2151, 93.7424
2148, 93.7522
2145, 93.7494
2142, 93.7433
2139, 93.7554
2136, 93.7754
2133, 93.7481
2130, 93.7438
2127, 93.7405
2124, 93.75
2121, 93.737
2118, 93.7355
2115, 93.7401
2112, 93.741
2109, 93.7496
2106, 93.7593
2103, 93.7578
2100, 93.7428
2097, 93.7378
2094, 93.7351
2091, 93.7422
2088, 93.7296
2085, 93.7568
2082, 93.7516
2079, 93.753
2076, 93.7269
2073, 93.7301
2070, 93.7279
2067, 93.7363
2064, 93.7281
2061, 93.7248
2058, 93.7286
2055, 93.7144
2052, 93.7309
2049, 93.7372
2046, 93.7279
2043, 93.7224
2040, 93.7257
2037, 93.7202
2034, 93.7297
2031, 93.686
2028, 93.7427
2025, 93.7377
2022, 93.7228
2019, 93.705
2016, 93.724
2013, 93.7357
2010, 93.7085
2007, 93.7161
2004, 93.7275
2001, 93.698
1998, 93.7174
1995, 93.7468
1992, 93.708
1989, 93.7017
1986, 93.7272
1983, 93.7071
1980, 93.7419
1977, 93.713
1974, 93.6829
1971, 93.7216
1968, 93.6906
1965, 93.6965
1962, 93.6853
1959, 93.703
1956, 93.6912
1953, 93.6941
1950, 93.6857
1947, 93.7059
1944, 93.6962
1941, 93.6927
1938, 93.6832
1935, 93.6532
1932, 93.7072
1929, 93.7184
1926, 93.6668
1923, 93.7392
1920, 93.706
1917, 93.6446
1914, 93.7822
1911, 93.6521
1908, 93.7071
1905, 93.7908
1902, 93.7455
1899, 93.7648
1896, 93.6871
1893, 93.7544
1890, 93.7053
1887, 93.6964
1884, 93.6758
1881, 93.6795
1878, 93.6732
1875, 93.7442
1872, 93.6407
1869, 93.6951
1866, 93.7364
1863, 93.7318
1860, 93.6726
1857, 93.7133
1854, 93.6514
1851, 93.633
1848, 93.7465
1845, 93.695
1842, 93.854
1839, 93.6501
1836, 93.6928
1833, 93.7386
1830, 93.6105
1827, 93.7152
1824, 93.6716
1821, 93.7201
1818, 93.6469
1815, 93.7886
1812, 93.6436
1809, 93.735
1806, 93.7613
1803, 93.7367
1800, 93.7068
1797, 93.7264
1794, 93.7133
1791, 93.7354
1788, 93.7332
1785, 93.7353
1782, 93.7071
1779, 93.6884
1776, 93.7185
1773, 93.7241
1770, 93.7072
1767, 93.7241
1764, 93.6944
1761, 93.7325
1758, 93.7245
1755, 93.7147
1752, 93.7308
1749, 93.7232
1746, 93.7113
1743, 93.7264
1740, 93.6998
1737, 93.721
1734, 93.7234
1731, 93.7298
1728, 93.7069
1725, 93.7062
1722, 93.7292
1719, 93.718
1716, 93.7099
1713, 93.7098
1710, 93.7154
1707, 93.6969
1704, 93.6932
1701, 93.7039
1698, 93.7165
1695, 93.7146
1692, 93.6926
1689, 93.6953
1686, 93.6964
1683, 93.711
1680, 93.7173
1677, 93.7276
1674, 93.7166
1671, 93.7244
1668, 93.7212
1665, 93.7058
1662, 93.7042
1659, 93.7269
1656, 93.7129
1653, 93.6982
1650, 93.717
1647, 93.7024
1644, 93.7073
1641, 93.7086
1638, 93.7021
1635, 93.7165
1632, 93.7161
1629, 93.6943
1626, 93.7064
1623, 93.7172
1620, 93.6944
1617, 93.7068
1614, 93.715
1611, 93.7149
1608, 93.71
1605, 93.7096
1602, 93.6944
1599, 93.6736
1596, 93.6673
1593, 93.6811
1590, 93.692
1587, 93.6809
1584, 93.6772
1581, 93.6817
1578, 93.7115
1575, 93.7085
1572, 93.6797
1569, 93.6708
1566, 93.7078
1563, 93.7025
1560, 93.7011
1557, 93.6603
1554, 93.6954
1551, 93.6726
1548, 93.7055
1545, 93.6832
1542, 93.6827
1539, 93.6712
1536, 93.6751
1533, 93.6755
1530, 93.6935
1527, 93.656
1524, 93.6638
1521, 93.6829
1518, 93.6543
1515, 93.6484
1512, 93.6854
1509, 93.6471
1506, 93.6719
1503, 93.6548
1500, 93.6543
1497, 93.6675
1494, 93.6795
1491, 93.6482
1488, 93.6461
1485, 93.6261
1482, 93.6644
1479, 93.6812
1476, 93.6637
1473, 93.6726
1470, 93.669
1467, 93.6487
1464, 93.6131
1461, 93.648
1458, 93.6614
1455, 93.6644
1452, 93.6868
1449, 93.6547
1446, 93.7264
1443, 93.599
1440, 93.6551
1437, 93.6603
1434, 93.6537
1431, 93.6715
1428, 93.6428
1425, 93.6536
1422, 93.6633
1419, 93.6366
1416, 93.6217
1413, 93.6439
1410, 93.6279
1407, 93.6404
1404, 93.7686
1401, 93.6808
1398, 93.5769
1395, 93.6841
1392, 93.6219
1389, 93.6306
1386, 93.6193
1383, 93.6385
1380, 93.5694
1377, 93.6365
1374, 93.6576
1371, 93.6512
1368, 93.6023
1365, 93.6499
1362, 93.6703
1359, 93.5717
1356, 93.6832
1353, 93.6178
1350, 93.5716
1347, 93.6415
1344, 93.6214
1341, 93.654
1338, 93.6096
1335, 93.6484
1332, 93.5805
1329, 93.6429
1326, 93.6233
1323, 93.653
1320, 93.6082
1317, 93.6362
1314, 93.6183
1311, 93.5937
1308, 93.6284
1305, 93.6151
1302, 93.6178
1299, 93.6355
1296, 93.6152
1293, 93.6035
1290, 93.6207
1287, 93.6258
1284, 93.6078
1281, 93.6266
1278, 93.5919
1275, 93.5949
1272, 93.5994
1269, 93.6099
1266, 93.6034
1263, 93.6356
1260, 93.6291
1257, 93.6457
1254, 93.6071
1251, 93.6443
1248, 93.6215
1245, 93.6189
1242, 93.6027
1239, 93.6137
1236, 93.6445
1233, 93.6271
1230, 93.6171
1227, 93.6149
1224, 93.5996
1221, 93.63
1218, 93.6024
1215, 93.6249
1212, 93.6091
1209, 93.6225
1206, 93.6046
1203, 93.6167
1200, 93.6247
1197, 93.6078
1194, 93.6097
1191, 93.6118
1188, 93.5805
1185, 93.572
1182, 93.5533
1179, 93.5849
1176, 93.5733
1173, 93.5572
1170, 93.5892
1167, 93.5635
1164, 93.5814
1161, 93.5756
1158, 93.5774
1155, 93.5684
1152, 93.5713
1149, 93.5697
1146, 93.5588
1143, 93.5686
1140, 93.5685
1137, 93.5795
1134, 93.5372
1131, 93.5743
1128, 93.5806
1125, 93.5651
1122, 93.571
1119, 93.5742
1116, 93.5673
1113, 93.5674
1110, 93.5507
1107, 93.551
1104, 93.5577
1101, 93.5416
1098, 93.5515
1095, 93.5367
1092, 93.5436
1089, 93.5417
1086, 93.5345
1083, 93.5578
1080, 93.5366
1077, 93.5318
1074, 93.5212
1071, 93.5219
1068, 93.523
1065, 93.5363
1062, 93.5499
1059, 93.552
1056, 93.5273
1053, 93.5221
1050, 93.5283
1047, 93.5303
1044, 93.5293
1041, 93.534
1038, 93.5147
1035, 93.5338
1032, 93.5105
1029, 93.5112
1026, 93.4919
1023, 93.5189
1020, 93.5147
1017, 93.5127
1014, 93.5075
1011, 93.4903
1008, 93.4981
1005, 93.4873
1002, 93.479
999, 93.493
996, 93.496
993, 93.4822
990, 93.4883
987, 93.4707
984, 93.5136
981, 93.482
978, 93.4683
975, 93.49
972, 93.4972
969, 93.4949
966, 93.4886
963, 93.4987
960, 93.4772
957, 93.4942
954, 93.4482
951, 93.4843
948, 93.4753
945, 93.4818
942, 93.4728
939, 93.4758
936, 93.4655
933, 93.4436
930, 93.4623
927, 93.4917
924, 93.4422
921, 93.4696
918, 93.4895
915, 93.4897
912, 93.4696
909, 93.4563
906, 93.4518
903, 93.4386
900, 93.4694
897, 93.481
894, 93.4483
891, 93.4391
888, 93.4532
885, 93.4686
882, 93.4677
879, 93.4483
876, 93.4528
873, 93.4302
870, 93.4796
867, 93.4647
864, 93.4852
861, 93.4317
858, 93.4434
855, 93.3716
852, 93.3498
849, 93.4411
846, 93.3324
843, 93.3448
840, 93.3272
837, 93.3798
834, 93.3408
831, 93.3584
828, 93.2768
825, 93.3586
822, 93.3237
819, 93.3334
816, 93.3629
813, 93.3372
810, 93.3261
807, 93.307
804, 93.3035
801, 93.3163
798, 93.3195
795, 93.3547
792, 93.3371
789, 93.2964
786, 93.3182
783, 93.3039
780, 93.3278
777, 93.3107
774, 93.3141
771, 93.3076
768, 93.3769
765, 93.3322
762, 93.3301
759, 93.2988
756, 93.2723
753, 93.2992
750, 93.2952
747, 93.2869
744, 93.3625
741, 93.2991
738, 93.2887
735, 93.3237
732, 93.2961
729, 93.2804
726, 93.3457
723, 93.2963
720, 93.3391
717, 93.2545
714, 93.3267
711, 93.2696
708, 93.2857
705, 93.2293
702, 93.2987
699, 93.2518
696, 93.2766
693, 93.248
690, 93.2765
687, 93.2604
684, 93.252
681, 93.2451
678, 93.2921
675, 93.2326
672, 93.3051
669, 93.2419
666, 93.2568
663, 93.278
660, 93.271
657, 93.2195
654, 93.2745
651, 93.2443
648, 93.2784
645, 93.2679
642, 93.2521
639, 93.2646
636, 93.2564
633, 93.2169
630, 93.2446
627, 93.2063
624, 93.232
621, 93.213
618, 93.2394
615, 93.2031
612, 93.2459
609, 93.2255
606, 93.2412
603, 93.2142
600, 93.2365
597, 93.2118
594, 93.2461
591, 93.1982
588, 93.1997
585, 93.1925
582, 93.1835
579, 93.1745
576, 93.1939
573, 93.1438
570, 93.189
567, 93.159
564, 93.166
561, 93.1586
558, 93.1697
555, 93.1825
552, 93.1371
549, 93.1763
546, 93.1553
543, 93.1719
540, 93.1662
537, 93.1677
534, 93.1467
531, 93.1715
528, 93.1407
525, 93.1377
522, 93.1528
519, 93.1459
516, 93.1253
513, 93.1702
510, 93.1127
507, 93.1154
504, 93.1168
501, 93.0652
498, 93.0642
495, 93.1161
492, 93.04
489, 93.0735
486, 93.0459
483, 93.0805
480, 93.086
477, 93.0824
474, 93.0723
471, 93.0442
468, 93.0633
465, 93.1041
462, 92.9909
459, 93.0238
456, 92.9981
453, 93.0169
450, 93.0136
447, 92.9865
444, 92.976
441, 92.9702
438, 92.9602
435, 92.9865
432, 92.9212
429, 92.9752
426, 92.929
423, 92.9395
420, 92.8976
417, 92.9163
414, 92.9264
411, 92.9089
408, 92.9118
405, 92.8955
402, 92.8732
399, 92.8193
396, 92.8545
393, 92.822
390, 92.8005
387, 92.8024
384, 92.7907
381, 92.7684
378, 92.7816
375, 92.7618
372, 92.7755
369, 92.7437
366, 92.7068
363, 92.6984
360, 92.6754
357, 92.6466
354, 92.6547
351, 92.6057
348, 92.6006
345, 92.5664
342, 92.5838
339, 92.5147
336, 92.5248
333, 92.5046
330, 92.5025
327, 92.4623
324, 92.4238
321, 92.4042
318, 92.4397
315, 92.436
312, 92.4099
309, 92.3624
306, 92.357
303, 92.3246
300, 92.3209
297, 92.1992
294, 92.2077
291, 92.1494
288, 92.0882
285, 92.0394
282, 92.0025
279, 91.9556
276, 91.9246
273, 91.8549
270, 91.7513
267, 91.6342
264, 91.4417
261, 91.1396
258, 90.7223
255, 89.9714
252, 89.1519
250, 88.5145