File: Glass/OH Content/FTIR/Borofloat.DPT
1998.13	0.00002
2000.05	0.00003
2001.98	0.00004
2003.91	0.00004
2005.84	0.00004
2007.77	0.00003
2009.7	0.00000
2011.63	-0.00004
2013.56	-0.00006
2015.48	-0.00002
2017.41	0.00004
2019.34	0.00007
2021.27	0.00006
2023.2	0.00006
2025.13	0.00006
2027.06	0.00005
2028.98	0.00006
2030.91	0.00008
2032.84	0.00011
2034.77	0.00014
2036.7	0.00014
2038.63	0.00013
2040.56	0.00014
2042.49	0.00019
2044.41	0.00024
2046.34	0.00028
2048.27	0.00033
2050.2	0.00037
2052.13	0.00041
2054.06	0.00047
2055.99	0.00057
2057.91	0.00066
2059.84	0.00072
2061.77	0.00078
2063.7	0.00087
2065.63	0.00098
2067.56	0.00108
2069.49	0.00117
2071.42	0.00127
2073.34	0.00138
2075.27	0.00146
2077.2	0.00154
2079.13	0.00163
2081.06	0.00175
2082.99	0.00186
2084.92	0.00195
2086.85	0.00204
2088.77	0.00215
2090.7	0.00224
2092.63	0.00231
2094.56	0.00241
2096.49	0.00254
2098.42	0.00267
2100.35	0.00279
2102.27	0.00291
2104.2	0.00303
2106.13	0.00315
2108.06	0.00330
2109.99	0.00347
2111.92	0.00362
2113.85	0.00379
2115.78	0.00399
2117.7	0.00418
2119.63	0.00437
2121.56	0.00462
2123.49	0.00493
2125.42	0.00526
2127.35	0.00556
2129.28	0.00584
2131.21	0.00613
2133.13	0.00647
2135.06	0.00690
2136.99	0.00736
2138.92	0.00782
2140.85	0.00830
2142.78	0.00882
2144.71	0.00938
2146.63	0.00996
2148.56	0.01057
2150.49	0.01120
2152.42	0.01187
2154.35	0.01256
2156.28	0.01327
2158.21	0.01402
2160.14	0.01481
2162.06	0.01565
2163.99	0.01652
2165.92	0.01742
2167.85	0.01833
2169.78	0.01928
2171.71	0.02028
2173.64	0.02132
2175.57	0.02237
2177.49	0.02343
2179.42	0.02448
2181.35	0.02552
2183.28	0.02656
2185.21	0.02762
2187.14	0.02872
2189.07	0.02984
2190.99	0.03096
2192.92	0.03209
2194.85	0.03320
2196.78	0.03428
2198.71	0.03532
2200.64	0.03638
2202.57	0.03748
2204.5	0.03854
2206.42	0.03953
2208.35	0.04052
2210.28	0.04155
2212.21	0.04257
2214.14	0.04356
2216.07	0.04450
2218	0.04542
2219.93	0.04633
2221.85	0.04722
2223.78	0.04810
2225.71	0.04895
2227.64	0.04978
2229.57	0.05060
2231.5	0.05139
2233.43	0.05216
2235.35	0.05292
2237.28	0.05366
2239.21	0.05438
2241.14	0.05509
2243.07	0.05580
2245	0.05652
2246.93	0.05722
2248.86	0.05789
2250.78	0.05859
2252.71	0.05930
2254.64	0.05999
2256.57	0.06065
2258.5	0.06132
2260.43	0.06199
2262.36	0.06266
2264.29	0.06335
2266.21	0.06405
2268.14	0.06475
2270.07	0.06548
2272	0.06625
2273.93	0.06701
2275.86	0.06777
2277.79	0.06856
2279.71	0.06939
2281.64	0.07024
2283.57	0.07111
2285.5	0.07201
2287.43	0.07294
2289.36	0.07393
2291.29	0.07496
2293.22	0.07603
2295.14	0.07713
2297.07	0.07826
2299	0.07944
2300.93	0.08065
2302.86	0.08193
2304.79	0.08329
2306.72	0.08469
2308.65	0.08610
2310.57	0.08753
2312.5	0.08904
2314.43	0.09061
2316.36	0.09221
2318.29	0.09387
2320.22	0.09559
2322.15	0.09741
2324.07	0.09930
2326	0.10121
2327.93	0.10305
2329.86	0.10487
2331.79	0.10670
2333.72	0.10856
2335.65	0.11048
2337.58	0.11247
2339.5	0.11441
2341.43	0.11631
2343.36	0.11835
2345.29	0.12051
2347.22	0.12243
2349.15	0.12398
2351.08	0.12547
2353	0.12717
2354.93	0.12893
2356.86	0.13070
2358.79	0.13250
2360.72	0.13408
2362.65	0.13548
2364.58	0.13689
2366.51	0.13832
2368.43	0.13964
2370.36	0.14080
2372.29	0.14188
2374.22	0.14291
2376.15	0.14384
2378.08	0.14467
2380.01	0.14539
2381.94	0.14600
2383.86	0.14649
2385.79	0.14688
2387.72	0.14716
2389.65	0.14735
2391.58	0.14745
2393.51	0.14749
2395.44	0.14744
2397.36	0.14731
2399.29	0.14710
2401.22	0.14683
2403.15	0.14652
2405.08	0.14615
2407.01	0.14572
2408.94	0.14522
2410.87	0.14464
2412.79	0.14399
2414.72	0.14332
2416.65	0.14264
2418.58	0.14192
2420.51	0.14115
2422.44	0.14036
2424.37	0.13952
2426.3	0.13862
2428.22	0.13767
2430.15	0.13671
2432.08	0.13573
2434.01	0.13472
2435.94	0.13369
2437.87	0.13264
2439.8	0.13155
2441.72	0.13041
2443.65	0.12925
2445.58	0.12810
2447.51	0.12694
2449.44	0.12572
2451.37	0.12448
2453.3	0.12325
2455.23	0.12204
2457.15	0.12081
2459.08	0.11953
2461.01	0.11823
2462.94	0.11693
2464.87	0.11566
2466.8	0.11442
2468.73	0.11320
2470.66	0.11199
2472.58	0.11080
2474.51	0.10965
2476.44	0.10850
2478.37	0.10737
2480.3	0.10630
2482.23	0.10526
2484.16	0.10425
2486.08	0.10328
2488.01	0.10241
2489.94	0.10158
2491.87	0.10076
2493.8	0.10000
2495.73	0.09930
2497.66	0.09865
2499.59	0.09808
2501.51	0.09761
2503.44	0.09721
2505.37	0.09684
2507.3	0.09654
2509.23	0.09631
2511.16	0.09611
2513.09	0.09597
2515.02	0.09596
2516.94	0.09604
2518.87	0.09616
2520.8	0.09632
2522.73	0.09654
2524.66	0.09684
2526.59	0.09719
2528.52	0.09762
2530.44	0.09817
2532.37	0.09878
2534.3	0.09939
2536.23	0.10006
2538.16	0.10080
2540.09	0.10158
2542.02	0.10241
2543.95	0.10333
2545.87	0.10437
2547.8	0.10548
2549.73	0.10658
2551.66	0.10771
2553.59	0.10892
2555.52	0.11023
2557.45	0.11157
2559.38	0.11290
2561.3	0.11431
2563.23	0.11582
2565.16	0.11739
2567.09	0.11899
2569.02	0.12059
2570.95	0.12223
2572.88	0.12394
2574.8	0.12570
2576.73	0.12750
2578.66	0.12933
2580.59	0.13116
2582.52	0.13299
2584.45	0.13483
2586.38	0.13671
2588.31	0.13865
2590.23	0.14058
2592.16	0.14246
2594.09	0.14432
2596.02	0.14617
2597.95	0.14801
2599.88	0.14983
2601.81	0.15161
2603.73	0.15333
2605.66	0.15495
2607.59	0.15650
2609.52	0.15801
2611.45	0.15944
2613.38	0.16081
2615.31	0.16209
2617.24	0.16322
2619.16	0.16424
2621.09	0.16518
2623.02	0.16596
2624.95	0.16655
2626.88	0.16699
2628.81	0.16735
2630.74	0.16760
2632.67	0.16768
2634.59	0.16754
2636.52	0.16727
2638.45	0.16689
2640.38	0.16637
2642.31	0.16561
2644.24	0.16462
2646.17	0.16348
2648.09	0.16224
2650.02	0.16087
2651.95	0.15933
2653.88	0.15762
2655.81	0.15575
2657.74	0.15378
2659.67	0.15169
2661.6	0.14948
2663.52	0.14718
2665.45	0.14478
2667.38	0.14224
2669.31	0.13959
2671.24	0.13689
2673.17	0.13413
2675.1	0.13133
2677.03	0.12849
2678.95	0.12556
2680.88	0.12254
2682.81	0.11956
2684.74	0.11661
2686.67	0.11365
2688.6	0.11065
2690.53	0.10766
2692.45	0.10473
2694.38	0.10184
2696.31	0.09895
2698.24	0.09607
2700.17	0.09325
2702.1	0.09051
2704.03	0.08783
2705.96	0.08523
2707.88	0.08271
2709.81	0.08022
2711.74	0.07780
2713.67	0.07553
2715.6	0.07337
2717.53	0.07125
2719.46	0.06920
2721.39	0.06726
2723.31	0.06542
2725.24	0.06367
2727.17	0.06201
2729.1	0.06044
2731.03	0.05895
2732.96	0.05757
2734.89	0.05632
2736.81	0.05516
2738.74	0.05408
2740.67	0.05313
2742.6	0.05229
2744.53	0.05154
2746.46	0.05090
2748.39	0.05036
2750.32	0.04989
2752.24	0.04950
2754.17	0.04921
2756.1	0.04905
2758.03	0.04904
2759.96	0.04912
2761.89	0.04928
2763.82	0.04952
2765.75	0.04988
2767.67	0.05036
2769.6	0.05093
2771.53	0.05160
2773.46	0.05238
2775.39	0.05331
2777.32	0.05434
2779.25	0.05542
2781.17	0.05656
2783.1	0.05779
2785.03	0.05912
2786.96	0.06058
2788.89	0.06214
2790.82	0.06378
2792.75	0.06553
2794.68	0.06741
2796.6	0.06940
2798.53	0.07143
2800.46	0.07348
2802.39	0.07563
2804.32	0.07791
2806.25	0.08030
2808.18	0.08276
2810.11	0.08532
2812.03	0.08797
2813.96	0.09069
2815.89	0.09349
2817.82	0.09636
2819.75	0.09931
2821.68	0.10235
2823.61	0.10546
2825.53	0.10867
2827.46	0.11196
2829.39	0.11534
2831.32	0.11884
2833.25	0.12241
2835.18	0.12604
2837.11	0.12979
2839.04	0.13372
2840.96	0.13776
2842.89	0.14186
2844.82	0.14602
2846.75	0.15026
2848.68	0.15459
2850.61	0.15906
2852.54	0.16372
2854.47	0.16855
2856.39	0.17351
2858.32	0.17859
2860.25	0.18380
2862.18	0.18914
2864.11	0.19463
2866.04	0.20027
2867.97	0.20599
2869.89	0.21182
2871.82	0.21781
2873.75	0.22392
2875.68	0.23013
2877.61	0.23645
2879.54	0.24289
2881.47	0.24945
2883.4	0.25613
2885.32	0.26288
2887.25	0.26971
2889.18	0.27669
2891.11	0.28373
2893.04	0.29082
2894.97	0.29803
2896.9	0.30530
2898.82	0.31258
2900.75	0.31988
2902.68	0.32724
2904.61	0.33464
2906.54	0.34205
2908.47	0.34952
2910.4	0.35700
2912.33	0.36440
2914.25	0.37171
2916.18	0.37902
2918.11	0.38637
2920.04	0.39371
2921.97	0.40097
2923.9	0.40824
2925.83	0.41559
2927.76	0.42293
2929.68	0.43014
2931.61	0.43726
2933.54	0.44436
2935.47	0.45141
2937.4	0.45832
2939.33	0.46508
2941.26	0.47172
2943.18	0.47830
2945.11	0.48482
2947.04	0.49118
2948.97	0.49735
2950.9	0.50345
2952.83	0.50946
2954.76	0.51530
2956.69	0.52094
2958.61	0.52646
2960.54	0.53195
2962.47	0.53739
2964.4	0.54272
2966.33	0.54796
2968.26	0.55310
2970.19	0.55807
2972.12	0.56288
2974.04	0.56752
2975.97	0.57204
2977.9	0.57650
2979.83	0.58082
2981.76	0.58500
2983.69	0.58906
2985.62	0.59296
2987.54	0.59675
2989.47	0.60055
2991.4	0.60431
2993.33	0.60793
2995.26	0.61135
2997.19	0.61453
2999.12	0.61757
3001.05	0.62061
3002.97	0.62365
3004.9	0.62666
3006.83	0.62956
3008.76	0.63230
3010.69	0.63496
3012.62	0.63761
3014.55	0.64018
3016.48	0.64257
3018.4	0.64477
3020.33	0.64683
3022.26	0.64887
3024.19	0.65093
3026.12	0.65288
3028.05	0.65470
3029.98	0.65650
3031.9	0.65832
3033.83	0.66008
3035.76	0.66166
3037.69	0.66307
3039.62	0.66448
3041.55	0.66590
3043.48	0.66727
3045.41	0.66856
3047.33	0.66979
3049.26	0.67096
3051.19	0.67199
3053.12	0.67290
3055.05	0.67374
3056.98	0.67454
3058.91	0.67533
3060.84	0.67615
3062.76	0.67699
3064.69	0.67778
3066.62	0.67850
3068.55	0.67908
3070.48	0.67950
3072.41	0.67987
3074.34	0.68027
3076.26	0.68069
3078.19	0.68106
3080.12	0.68139
3082.05	0.68167
3083.98	0.68194
3085.91	0.68216
3087.84	0.68222
3089.77	0.68216
3091.69	0.68209
3093.62	0.68199
3095.55	0.68183
3097.48	0.68173
3099.41	0.68167
3101.34	0.68155
3103.27	0.68141
3105.2	0.68129
3107.12	0.68111
3109.05	0.68084
3110.98	0.68050
3112.91	0.68024
3114.84	0.68009
3116.77	0.67989
3118.7	0.67951
3120.62	0.67899
3122.55	0.67839
3124.48	0.67779
3126.41	0.67725
3128.34	0.67682
3130.27	0.67643
3132.2	0.67594
3134.13	0.67536
3136.05	0.67478
3137.98	0.67419
3139.91	0.67353
3141.84	0.67285
3143.77	0.67227
3145.7	0.67172
3147.63	0.67112
3149.55	0.67054
3151.48	0.67001
3153.41	0.66941
3155.34	0.66862
3157.27	0.66773
3159.2	0.66693
3161.13	0.66623
3163.06	0.66552
3164.98	0.66480
3166.91	0.66413
3168.84	0.66344
3170.77	0.66271
3172.7	0.66197
3174.63	0.66117
3176.56	0.66031
3178.49	0.65954
3180.41	0.65885
3182.34	0.65816
3184.27	0.65747
3186.2	0.65680
3188.13	0.65610
3190.06	0.65525
3191.99	0.65429
3193.91	0.65343
3195.84	0.65268
3197.77	0.65193
3199.7	0.65118
3201.63	0.65047
3203.56	0.64975
3205.49	0.64896
3207.42	0.64815
3209.34	0.64731
3211.27	0.64646
3213.2	0.64567
3215.13	0.64492
3217.06	0.64418
3218.99	0.64343
3220.92	0.64259
3222.85	0.64169
3224.77	0.64080
3226.7	0.63994
3228.63	0.63914
3230.56	0.63842
3232.49	0.63768
3234.42	0.63679
3236.35	0.63581
3238.27	0.63483
3240.2	0.63395
3242.13	0.63315
3244.06	0.63237
3245.99	0.63163
3247.92	0.63082
3249.85	0.62979
3251.78	0.62878
3253.7	0.62800
3255.63	0.62724
3257.56	0.62629
3259.49	0.62525
3261.42	0.62426
3263.35	0.62334
3265.28	0.62245
3267.21	0.62165
3269.13	0.62096
3271.06	0.62022
3272.99	0.61932
3274.92	0.61830
3276.85	0.61723
3278.78	0.61615
3280.71	0.61511
3282.63	0.61414
3284.56	0.61320
3286.49	0.61225
3288.42	0.61139
3290.35	0.61059
3292.28	0.60968
3294.21	0.60864
3296.14	0.60754
3298.06	0.60642
3299.99	0.60540
3301.92	0.60453
3303.85	0.60362
3305.78	0.60263
3307.71	0.60164
3309.64	0.60058
3311.57	0.59934
3313.49	0.59805
3315.42	0.59690
3317.35	0.59583
3319.28	0.59470
3321.21	0.59359
3323.14	0.59260
3325.07	0.59167
3326.99	0.59062
3328.92	0.58940
3330.85	0.58815
3332.78	0.58693
3334.71	0.58582
3336.64	0.58488
3338.57	0.58394
3340.5	0.58286
3342.42	0.58167
3344.35	0.58035
3346.28	0.57898
3348.21	0.57779
3350.14	0.57670
3352.07	0.57548
3354	0.57419
3355.93	0.57292
3357.85	0.57171
3359.78	0.57055
3361.71	0.56933
3363.64	0.56804
3365.57	0.56678
3367.5	0.56554
3369.43	0.56420
3371.35	0.56274
3373.28	0.56126
3375.21	0.55987
3377.14	0.55852
3379.07	0.55716
3381	0.55581
3382.93	0.55439
3384.86	0.55299
3386.78	0.55171
3388.71	0.55051
3390.64	0.54927
3392.57	0.54787
3394.5	0.54633
3396.43	0.54480
3398.36	0.54335
3400.29	0.54198
3402.21	0.54057
3404.14	0.53898
3406.07	0.53735
3408	0.53588
3409.93	0.53448
3411.86	0.53297
3413.79	0.53128
3415.71	0.52946
3417.64	0.52767
3419.57	0.52601
3421.5	0.52444
3423.43	0.52292
3425.36	0.52145
3427.29	0.51999
3429.22	0.51855
3431.14	0.51700
3433.07	0.51538
3435	0.51374
3436.93	0.51195
3438.86	0.51003
3440.79	0.50816
3442.72	0.50641
3444.64	0.50468
3446.57	0.50288
3448.5	0.50104
3450.43	0.49927
3452.36	0.49755
3454.29	0.49584
3456.22	0.49409
3458.15	0.49235
3460.07	0.49062
3462	0.48875
3463.93	0.48685
3465.86	0.48511
3467.79	0.48336
3469.72	0.48145
3471.65	0.47944
3473.58	0.47750
3475.5	0.47561
3477.43	0.47381
3479.36	0.47202
3481.29	0.46997
3483.22	0.46777
3485.15	0.46578
3487.08	0.46388
3489	0.46181
3490.93	0.45970
3492.86	0.45769
3494.79	0.45571
3496.72	0.45362
3498.65	0.45153
3500.58	0.44959
3502.51	0.44750
3504.43	0.44504
3506.36	0.44263
3508.29	0.44042
3510.22	0.43820
3512.15	0.43607
3514.08	0.43397
3516.01	0.43172
3517.94	0.42942
3519.86	0.42720
3521.79	0.42507
3523.72	0.42271
3525.65	0.42018
3527.58	0.41772
3529.51	0.41534
3531.44	0.41304
3533.36	0.41082
3535.29	0.40853
3537.22	0.40600
3539.15	0.40360
3541.08	0.40151
3543.01	0.39939
3544.94	0.39679
3546.87	0.39382
3548.79	0.39122
3550.72	0.38897
3552.65	0.38652
3554.58	0.38392
3556.51	0.38155
3558.44	0.37922
3560.37	0.37685
3562.3	0.37443
3564.22	0.37200
3566.15	0.36934
3568.08	0.36642
3570.01	0.36423
3571.94	0.36234
3573.87	0.36032
3575.8	0.35816
3577.72	0.35607
3579.65	0.35405
3581.58	0.35205
3583.51	0.35028
3585.44	0.34847
3587.37	0.34608
3589.3	0.34356
3591.23	0.34199
3593.15	0.34052
3595.08	0.33874
3597.01	0.33721
3598.94	0.33593
3600.87	0.33468
3602.8	0.33342
3604.73	0.33243
3606.66	0.33132
3608.58	0.33023
3610.51	0.32954
3612.44	0.32910
3614.37	0.32887
3616.3	0.32869
3618.23	0.32875
3620.16	0.32919
3622.08	0.33004
3624.01	0.33072
3625.94	0.33133
3627.87	0.33238
3629.8	0.33486
3631.73	0.33769
3633.66	0.34006
3635.59	0.34298
3637.51	0.34619
3639.44	0.34992
3641.37	0.35416
3643.3	0.35852
3645.23	0.36262
3647.16	0.36715
3649.09	0.37598
3651.02	0.38735
3652.94	0.39442
3654.87	0.40060
3656.8	0.41033
3658.73	0.42156
3660.66	0.43167
3662.59	0.44243
3664.52	0.45348
3666.44	0.46389
3668.37	0.47478
3670.3	0.49166
3672.23	0.50746
3674.16	0.51876
3676.09	0.53778
3678.02	0.55772
3679.95	0.57180
3681.87	0.58520
3683.8	0.59829
3685.73	0.61043
3687.66	0.62349
3689.59	0.64136
3691.52	0.66033
3693.45	0.67391
3695.37	0.68582
3697.3	0.69845
3699.23	0.71060
3701.16	0.72393
3703.09	0.73914
3705.02	0.75186
3706.95	0.76174
3708.88	0.77106
3710.8	0.78268
3712.73	0.79669
3714.66	0.80701
3716.59	0.81398
3718.52	0.82035
3720.45	0.82653
3722.38	0.83223
3724.31	0.83694
3726.23	0.84081
3728.16	0.84448
3730.09	0.84726
3732.02	0.84964
3733.95	0.85215
3735.88	0.85499
3737.81	0.85728
3739.73	0.85846
3741.66	0.85912
3743.59	0.85936
3745.52	0.85984
3747.45	0.86018
3749.38	0.85988
3751.31	0.86058
3753.24	0.86362
3755.16	0.86587
3757.09	0.86683
3759.02	0.86760
3760.95	0.86842
3762.88	0.86901
3764.81	0.86942
3766.74	0.86971
3768.67	0.86968
3770.59	0.86983
3772.52	0.87056
3774.45	0.87116
3776.38	0.87156
3778.31	0.87186
3780.24	0.87224
3782.17	0.87253
3784.09	0.87264
3786.02	0.87296
3787.95	0.87345
3789.88	0.87380
3791.81	0.87391
3793.74	0.87396
3795.67	0.87391
3797.6	0.87363
3799.52	0.87295
3801.45	0.87247
3803.38	0.87309
3805.31	0.87344
3807.24	0.87355
3809.17	0.87417
3811.1	0.87463
3813.03	0.87451
3814.95	0.87399
3816.88	0.87357
3818.81	0.87370
3820.74	0.87389
3822.67	0.87400
3824.6	0.87423
3826.53	0.87438
3828.45	0.87434
3830.38	0.87386
3832.31	0.87323
3834.24	0.87311
3836.17	0.87301
3838.1	0.87246
3840.03	0.87247
3841.96	0.87333
3843.88	0.87433
3845.81	0.87514
3847.74	0.87540
3849.67	0.87509
3851.6	0.87390
3853.53	0.87157
3855.46	0.87171
3857.39	0.87325
3859.31	0.87406
3861.24	0.87427
3863.17	0.87419
3865.1	0.87402
3867.03	0.87358
3868.96	0.87308
3870.89	0.87316
3872.81	0.87378
3874.74	0.87425
3876.67	0.87451
3878.6	0.87443
3880.53	0.87416
3882.46	0.87446
3884.39	0.87515
3886.32	0.87529
3888.24	0.87476
3890.17	0.87420
3892.1	0.87395
3894.03	0.87421
3895.96	0.87444
3897.89	0.87419
3899.82	0.87370
3901.75	0.87362
3903.67	0.87395
3905.6	0.87435
3907.53	0.87489
3909.46	0.87533
3911.39	0.87548
3913.32	0.87548
3915.25	0.87545
3917.17	0.87553
3919.1	0.87575
3921.03	0.87590
3922.96	0.87587
3924.89	0.87584
3926.82	0.87619
3928.75	0.87666
3930.68	0.87700
3932.6	0.87722
3934.53	0.87727
3936.46	0.87725
3938.39	0.87735
3940.32	0.87728
3942.25	0.87695
3944.18	0.87689
3946.11	0.87716
3948.03	0.87739
3949.96	0.87758
3951.89	0.87781
3953.82	0.87803
3955.75	0.87824
3957.68	0.87845
3959.61	0.87861
3961.53	0.87875
3963.46	0.87895
3965.39	0.87931
3967.32	0.87974
3969.25	0.87994
3971.18	0.87996
3973.11	0.88008
3975.04	0.88040
3976.96	0.88072
3978.89	0.88086
3980.82	0.88101
3982.75	0.88139
3984.68	0.88178
3986.61	0.88187
3988.54	0.88182
3990.46	0.88189
3992.39	0.88206
3994.32	0.88226
3996.25	0.88244