File: Glass/OH Content/FTIR/Spectrosil 2000.DPT
1998.13	0.00006
2000.05	0.00002
2001.98	-0.00001
2003.91	0.00000
2005.84	0.00003
2007.77	0.00004
2009.7	0.00001
2011.63	-0.00003
2013.56	-0.00005
2015.48	-0.00004
2017.41	-0.00002
2019.34	-0.00002
2021.27	0.00001
2023.2	0.00004
2025.13	0.00007
2027.06	0.00008
2028.98	0.00007
2030.91	0.00005
2032.84	0.00005
2034.77	0.00005
2036.7	0.00005
2038.63	0.00009
2040.56	0.00017
2042.49	0.00025
2044.41	0.00033
2046.34	0.00039
2048.27	0.00048
2050.2	0.00065
2052.13	0.00092
2054.06	0.00131
2055.99	0.00183
2057.91	0.00249
2059.84	0.00334
2061.77	0.00444
2063.7	0.00585
2065.63	0.00765
2067.56	0.00987
2069.49	0.01256
2071.42	0.01586
2073.34	0.01983
2075.27	0.02454
2077.2	0.03000
2079.13	0.03627
2081.06	0.04339
2082.99	0.05134
2084.92	0.06009
2086.85	0.06965
2088.77	0.08000
2090.7	0.09110
2092.63	0.10271
2094.56	0.11471
2096.49	0.12709
2098.42	0.13975
2100.35	0.15258
2102.27	0.16546
2104.2	0.17826
2106.13	0.19088
2108.06	0.20325
2109.99	0.21529
2111.92	0.22693
2113.85	0.23815
2115.78	0.24895
2117.7	0.25933
2119.63	0.26925
2121.56	0.27872
2123.49	0.28771
2125.42	0.29627
2127.35	0.30446
2129.28	0.31231
2131.21	0.31985
2133.13	0.32710
2135.06	0.33406
2136.99	0.34076
2138.92	0.34722
2140.85	0.35346
2142.78	0.35947
2144.71	0.36527
2146.63	0.37093
2148.56	0.37647
2150.49	0.38182
2152.42	0.38695
2154.35	0.39188
2156.28	0.39662
2158.21	0.40118
2160.14	0.40557
2162.06	0.40977
2163.99	0.41378
2165.92	0.41758
2167.85	0.42114
2169.78	0.42449
2171.71	0.42762
2173.64	0.43050
2175.57	0.43309
2177.49	0.43543
2179.42	0.43746
2181.35	0.43917
2183.28	0.44063
2185.21	0.44179
2187.14	0.44260
2189.07	0.44308
2190.99	0.44322
2192.92	0.44298
2194.85	0.44240
2196.78	0.44153
2198.71	0.44039
2200.64	0.43892
2202.57	0.43712
2204.5	0.43504
2206.42	0.43269
2208.35	0.43005
2210.28	0.42716
2212.21	0.42406
2214.14	0.42076
2216.07	0.41729
2218	0.41365
2219.93	0.40989
2221.85	0.40604
2223.78	0.40217
2225.71	0.39828
2227.64	0.39435
2229.57	0.39041
2231.5	0.38653
2233.43	0.38272
2235.35	0.37903
2237.28	0.37546
2239.21	0.37205
2241.14	0.36881
2243.07	0.36578
2245	0.36298
2246.93	0.36035
2248.86	0.35792
2250.78	0.35577
2252.71	0.35392
2254.64	0.35235
2256.57	0.35101
2258.5	0.34993
2260.43	0.34916
2262.36	0.34872
2264.29	0.34858
2266.21	0.34872
2268.14	0.34919
2270.07	0.34997
2272	0.35104
2273.93	0.35241
2275.86	0.35408
2277.79	0.35609
2279.71	0.35845
2281.64	0.36116
2283.57	0.36409
2285.5	0.36725
2287.43	0.37077
2289.36	0.37465
2291.29	0.37881
2293.22	0.38321
2295.14	0.38787
2297.07	0.39278
2299	0.39796
2300.93	0.40339
2302.86	0.40904
2304.79	0.41491
2306.72	0.42094
2308.65	0.42709
2310.57	0.43342
2312.5	0.44001
2314.43	0.44665
2316.36	0.45321
2318.29	0.45986
2320.22	0.46672
2322.15	0.47368
2324.07	0.48067
2326	0.48760
2327.93	0.49430
2329.86	0.50105
2331.79	0.50789
2333.72	0.51433
2335.65	0.52052
2337.58	0.52674
2339.5	0.53290
2341.43	0.53898
2343.36	0.54507
2345.29	0.55131
2347.22	0.55683
2349.15	0.56109
2351.08	0.56483
2353	0.56887
2354.93	0.57312
2356.86	0.57715
2358.79	0.58101
2360.72	0.58472
2362.65	0.58827
2364.58	0.59174
2366.51	0.59491
2368.43	0.59762
2370.36	0.60007
2372.29	0.60251
2374.22	0.60503
2376.15	0.60748
2378.08	0.60963
2380.01	0.61146
2381.94	0.61317
2383.86	0.61491
2385.79	0.61660
2387.72	0.61822
2389.65	0.61986
2391.58	0.62153
2393.51	0.62322
2395.44	0.62490
2397.36	0.62659
2399.29	0.62831
2401.22	0.63012
2403.15	0.63207
2405.08	0.63407
2407.01	0.63611
2408.94	0.63825
2410.87	0.64044
2412.79	0.64263
2414.72	0.64486
2416.65	0.64720
2418.58	0.64964
2420.51	0.65218
2422.44	0.65477
2424.37	0.65740
2426.3	0.66007
2428.22	0.66278
2430.15	0.66558
2432.08	0.66845
2434.01	0.67129
2435.94	0.67412
2437.87	0.67699
2439.8	0.67990
2441.72	0.68279
2443.65	0.68568
2445.58	0.68862
2447.51	0.69160
2449.44	0.69455
2451.37	0.69744
2453.3	0.70031
2455.23	0.70319
2457.15	0.70607
2459.08	0.70893
2461.01	0.71175
2462.94	0.71454
2464.87	0.71726
2466.8	0.71996
2468.73	0.72257
2470.66	0.72501
2472.58	0.72739
2474.51	0.72981
2476.44	0.73220
2478.37	0.73447
2480.3	0.73668
2482.23	0.73884
2484.16	0.74092
2486.08	0.74290
2488.01	0.74486
2489.94	0.74677
2491.87	0.74854
2493.8	0.75013
2495.73	0.75163
2497.66	0.75317
2499.59	0.75470
2501.51	0.75614
2503.44	0.75745
2505.37	0.75866
2507.3	0.75980
2509.23	0.76088
2511.16	0.76190
2513.09	0.76288
2515.02	0.76382
2516.94	0.76467
2518.87	0.76545
2520.8	0.76619
2522.73	0.76691
2524.66	0.76758
2526.59	0.76821
2528.52	0.76878
2530.44	0.76933
2532.37	0.76987
2534.3	0.77036
2536.23	0.77082
2538.16	0.77126
2540.09	0.77168
2542.02	0.77208
2543.95	0.77248
2545.87	0.77286
2547.8	0.77317
2549.73	0.77342
2551.66	0.77370
2553.59	0.77402
2555.52	0.77433
2557.45	0.77468
2559.38	0.77506
2561.3	0.77537
2563.23	0.77561
2565.16	0.77584
2567.09	0.77609
2569.02	0.77635
2570.95	0.77662
2572.88	0.77686
2574.8	0.77708
2576.73	0.77731
2578.66	0.77754
2580.59	0.77777
2582.52	0.77796
2584.45	0.77813
2586.38	0.77833
2588.31	0.77852
2590.23	0.77864
2592.16	0.77877
2594.09	0.77894
2596.02	0.77906
2597.95	0.77913
2599.88	0.77918
2601.81	0.77920
2603.73	0.77916
2605.66	0.77907
2607.59	0.77896
2609.52	0.77882
2611.45	0.77865
2613.38	0.77846
2615.31	0.77825
2617.24	0.77808
2619.16	0.77796
2621.09	0.77780
2623.02	0.77754
2624.95	0.77723
2626.88	0.77685
2628.81	0.77647
2630.74	0.77619
2632.67	0.77596
2634.59	0.77567
2636.52	0.77533
2638.45	0.77501
2640.38	0.77473
2642.31	0.77451
2644.24	0.77431
2646.17	0.77414
2648.09	0.77401
2650.02	0.77395
2651.95	0.77394
2653.88	0.77398
2655.81	0.77404
2657.74	0.77413
2659.67	0.77435
2661.6	0.77469
2663.52	0.77511
2665.45	0.77562
2667.38	0.77618
2669.31	0.77684
2671.24	0.77767
2673.17	0.77855
2675.1	0.77942
2677.03	0.78036
2678.95	0.78143
2680.88	0.78268
2682.81	0.78408
2684.74	0.78556
2686.67	0.78707
2688.6	0.78860
2690.53	0.79013
2692.45	0.79172
2694.38	0.79344
2696.31	0.79530
2698.24	0.79719
2700.17	0.79911
2702.1	0.80111
2704.03	0.80314
2705.96	0.80514
2707.88	0.80715
2709.81	0.80919
2711.74	0.81126
2713.67	0.81331
2715.6	0.81534
2717.53	0.81739
2719.46	0.81946
2721.39	0.82151
2723.31	0.82357
2725.24	0.82560
2727.17	0.82756
2729.1	0.82945
2731.03	0.83128
2732.96	0.83305
2734.89	0.83480
2736.81	0.83654
2738.74	0.83827
2740.67	0.83994
2742.6	0.84154
2744.53	0.84306
2746.46	0.84450
2748.39	0.84590
2750.32	0.84729
2752.24	0.84861
2754.17	0.84983
2756.1	0.85096
2758.03	0.85203
2759.96	0.85308
2761.89	0.85410
2763.82	0.85510
2765.75	0.85606
2767.67	0.85691
2769.6	0.85763
2771.53	0.85837
2773.46	0.85925
2775.39	0.86016
2777.32	0.86098
2779.25	0.86169
2781.17	0.86240
2783.1	0.86317
2785.03	0.86391
2786.96	0.86457
2788.89	0.86521
2790.82	0.86589
2792.75	0.86662
2794.68	0.86744
2796.6	0.86831
2798.53	0.86916
2800.46	0.86990
2802.39	0.87062
2804.32	0.87140
2806.25	0.87222
2808.18	0.87302
2810.11	0.87381
2812.03	0.87463
2813.96	0.87560
2815.89	0.87668
2817.82	0.87767
2819.75	0.87862
2821.68	0.87954
2823.61	0.88034
2825.53	0.88112
2827.46	0.88199
2829.39	0.88299
2831.32	0.88406
2833.25	0.88509
2835.18	0.88600
2837.11	0.88686
2839.04	0.88772
2840.96	0.88855
2842.89	0.88936
2844.82	0.89011
2846.75	0.89073
2848.68	0.89125
2850.61	0.89190
2852.54	0.89282
2854.47	0.89396
2856.39	0.89515
2858.32	0.89627
2860.25	0.89726
2862.18	0.89820
2864.11	0.89914
2866.04	0.90000
2867.97	0.90075
2869.89	0.90150
2871.82	0.90236
2873.75	0.90315
2875.68	0.90380
2877.61	0.90442
2879.54	0.90503
2881.47	0.90561
2883.4	0.90615
2885.32	0.90668
2887.25	0.90722
2889.18	0.90779
2891.11	0.90832
2893.04	0.90874
2894.97	0.90912
2896.9	0.90950
2898.82	0.90980
2900.75	0.91006
2902.68	0.91032
2904.61	0.91054
2906.54	0.91074
2908.47	0.91097
2910.4	0.91113
2912.33	0.91110
2914.25	0.91088
2916.18	0.91066
2918.11	0.91066
2920.04	0.91088
2921.97	0.91117
2923.9	0.91151
2925.83	0.91203
2927.76	0.91268
2929.68	0.91326
2931.61	0.91372
2933.54	0.91416
2935.47	0.91451
2937.4	0.91475
2939.33	0.91499
2941.26	0.91530
2943.18	0.91563
2945.11	0.91592
2947.04	0.91611
2948.97	0.91630
2950.9	0.91650
2952.83	0.91667
2954.76	0.91674
2956.69	0.91671
2958.61	0.91665
2960.54	0.91669
2962.47	0.91687
2964.4	0.91712
2966.33	0.91733
2968.26	0.91749
2970.19	0.91763
2972.12	0.91777
2974.04	0.91794
2975.97	0.91811
2977.9	0.91825
2979.83	0.91828
2981.76	0.91823
2983.69	0.91827
2985.62	0.91839
2987.54	0.91853
2989.47	0.91873
2991.4	0.91893
2993.33	0.91907
2995.26	0.91912
2997.19	0.91907
2999.12	0.91895
3001.05	0.91889
3002.97	0.91897
3004.9	0.91909
3006.83	0.91915
3008.76	0.91921
3010.69	0.91933
3012.62	0.91949
3014.55	0.91956
3016.48	0.91953
3018.4	0.91948
3020.33	0.91941
3022.26	0.91930
3024.19	0.91920
3026.12	0.91911
3028.05	0.91902
3029.98	0.91899
3031.9	0.91905
3033.83	0.91905
3035.76	0.91887
3037.69	0.91863
3039.62	0.91852
3041.55	0.91856
3043.48	0.91861
3045.41	0.91858
3047.33	0.91849
3049.26	0.91835
3051.19	0.91823
3053.12	0.91813
3055.05	0.91801
3056.98	0.91785
3058.91	0.91771
3060.84	0.91770
3062.76	0.91782
3064.69	0.91792
3066.62	0.91790
3068.55	0.91776
3070.48	0.91752
3072.41	0.91727
3074.34	0.91716
3076.26	0.91713
3078.19	0.91707
3080.12	0.91696
3082.05	0.91689
3083.98	0.91694
3085.91	0.91697
3087.84	0.91677
3089.77	0.91645
3091.69	0.91622
3093.62	0.91604
3095.55	0.91582
3097.48	0.91568
3099.41	0.91563
3101.34	0.91558
3103.27	0.91556
3105.2	0.91555
3107.12	0.91549
3109.05	0.91532
3110.98	0.91509
3112.91	0.91498
3114.84	0.91508
3116.77	0.91523
3118.7	0.91526
3120.62	0.91507
3122.55	0.91476
3124.48	0.91441
3126.41	0.91410
3128.34	0.91401
3130.27	0.91404
3132.2	0.91394
3134.13	0.91375
3136.05	0.91358
3137.98	0.91349
3139.91	0.91336
3141.84	0.91311
3143.77	0.91291
3145.7	0.91285
3147.63	0.91280
3149.55	0.91271
3151.48	0.91263
3153.41	0.91248
3155.34	0.91221
3157.27	0.91189
3159.2	0.91167
3161.13	0.91150
3163.06	0.91131
3164.98	0.91118
3166.91	0.91110
3168.84	0.91103
3170.77	0.91092
3172.7	0.91080
3174.63	0.91065
3176.56	0.91043
3178.49	0.91019
3180.41	0.91003
3182.34	0.90993
3184.27	0.90985
3186.2	0.90972
3188.13	0.90956
3190.06	0.90937
3191.99	0.90915
3193.91	0.90901
3195.84	0.90891
3197.77	0.90874
3199.7	0.90863
3201.63	0.90869
3203.56	0.90876
3205.49	0.90864
3207.42	0.90837
3209.34	0.90808
3211.27	0.90788
3213.2	0.90780
3215.13	0.90771
3217.06	0.90762
3218.99	0.90760
3220.92	0.90752
3222.85	0.90724
3224.77	0.90690
3226.7	0.90670
3228.63	0.90669
3230.56	0.90681
3232.49	0.90683
3234.42	0.90658
3236.35	0.90612
3238.27	0.90573
3240.2	0.90555
3242.13	0.90555
3244.06	0.90561
3245.99	0.90560
3247.92	0.90537
3249.85	0.90494
3251.78	0.90462
3253.7	0.90456
3255.63	0.90448
3257.56	0.90418
3259.49	0.90377
3261.42	0.90346
3263.35	0.90321
3265.28	0.90292
3267.21	0.90270
3269.13	0.90271
3271.06	0.90274
3272.99	0.90256
3274.92	0.90223
3276.85	0.90178
3278.78	0.90132
3280.71	0.90092
3282.63	0.90062
3284.56	0.90031
3286.49	0.89993
3288.42	0.89969
3290.35	0.89961
3292.28	0.89938
3294.21	0.89893
3296.14	0.89848
3298.06	0.89806
3299.99	0.89768
3301.92	0.89742
3303.85	0.89720
3305.78	0.89694
3307.71	0.89658
3309.64	0.89607
3311.57	0.89539
3313.49	0.89467
3315.42	0.89406
3317.35	0.89354
3319.28	0.89304
3321.21	0.89257
3323.14	0.89221
3325.07	0.89188
3326.99	0.89144
3328.92	0.89088
3330.85	0.89033
3332.78	0.88977
3334.71	0.88933
3336.64	0.88912
3338.57	0.88878
3340.5	0.88817
3342.42	0.88750
3344.35	0.88678
3346.28	0.88600
3348.21	0.88536
3350.14	0.88482
3352.07	0.88410
3354	0.88327
3355.93	0.88249
3357.85	0.88188
3359.78	0.88136
3361.71	0.88063
3363.64	0.87981
3365.57	0.87918
3367.5	0.87852
3369.43	0.87761
3371.35	0.87655
3373.28	0.87544
3375.21	0.87438
3377.14	0.87335
3379.07	0.87239
3381	0.87146
3382.93	0.87041
3384.86	0.86928
3386.78	0.86827
3388.71	0.86749
3390.64	0.86681
3392.57	0.86581
3394.5	0.86438
3396.43	0.86290
3398.36	0.86169
3400.29	0.86065
3402.21	0.85938
3404.14	0.85767
3406.07	0.85592
3408	0.85447
3409.93	0.85315
3411.86	0.85173
3413.79	0.85002
3415.71	0.84817
3417.64	0.84636
3419.57	0.84458
3421.5	0.84280
3423.43	0.84105
3425.36	0.83931
3427.29	0.83751
3429.22	0.83569
3431.14	0.83376
3433.07	0.83170
3435	0.82959
3436.93	0.82732
3438.86	0.82482
3440.79	0.82216
3442.72	0.81948
3444.64	0.81703
3446.57	0.81467
3448.5	0.81196
3450.43	0.80903
3452.36	0.80615
3454.29	0.80329
3456.22	0.80040
3458.15	0.79745
3460.07	0.79444
3462	0.79110
3463.93	0.78758
3465.86	0.78421
3467.79	0.78071
3469.72	0.77688
3471.65	0.77280
3473.58	0.76864
3475.5	0.76436
3477.43	0.76011
3479.36	0.75586
3481.29	0.75100
3483.22	0.74559
3485.15	0.74037
3487.08	0.73514
3489	0.72940
3490.93	0.72351
3492.86	0.71773
3494.79	0.71170
3496.72	0.70514
3498.65	0.69844
3500.58	0.69194
3502.51	0.68462
3504.43	0.67606
3506.36	0.66789
3508.29	0.66013
3510.22	0.65154
3512.15	0.64256
3514.08	0.63367
3516.01	0.62437
3517.94	0.61465
3519.86	0.60494
3521.79	0.59527
3523.72	0.58477
3525.65	0.57362
3527.58	0.56215
3529.51	0.55009
3531.44	0.53835
3533.36	0.52733
3535.29	0.51597
3537.22	0.50346
3539.15	0.49099
3541.08	0.47946
3543.01	0.46796
3544.94	0.45511
3546.87	0.44058
3548.79	0.42712
3550.72	0.41507
3552.65	0.40207
3554.58	0.38869
3556.51	0.37655
3558.44	0.36469
3560.37	0.35242
3562.3	0.34051
3564.22	0.32954
3566.15	0.31718
3568.08	0.30164
3570.01	0.28901
3571.94	0.27928
3573.87	0.26935
3575.8	0.25880
3577.72	0.24829
3579.65	0.23803
3581.58	0.22828
3583.51	0.21969
3585.44	0.21165
3587.37	0.20144
3589.3	0.19022
3591.23	0.18244
3593.15	0.17566
3595.08	0.16771
3597.01	0.15994
3598.94	0.15299
3600.87	0.14580
3602.8	0.13879
3604.73	0.13314
3606.66	0.12774
3608.58	0.12141
3610.51	0.11538
3612.44	0.11010
3614.37	0.10466
3616.3	0.09987
3618.23	0.09533
3620.16	0.08958
3622.08	0.08481
3624.01	0.08131
3625.94	0.07826
3627.87	0.07456
3629.8	0.06911
3631.73	0.06521
3633.66	0.06236
3635.59	0.05938
3637.51	0.05635
3639.44	0.05355
3641.37	0.05082
3643.3	0.04845
3645.23	0.04655
3647.16	0.04460
3649.09	0.04202
3651.02	0.03901
3652.94	0.03748
3654.87	0.03615
3656.8	0.03463
3658.73	0.03324
3660.66	0.03221
3662.59	0.03132
3664.52	0.03047
3666.44	0.02998
3668.37	0.02948
3670.3	0.02913
3672.23	0.02875
3674.16	0.02873
3676.09	0.02916
3678.02	0.02958
3679.95	0.03028
3681.87	0.03108
3683.8	0.03244
3685.73	0.03380
3687.66	0.03579
3689.59	0.03945
3691.52	0.04428
3693.45	0.04864
3695.37	0.05337
3697.3	0.05998
3699.23	0.06778
3701.16	0.07915
3703.09	0.09519
3705.02	0.11209
3706.95	0.12934
3708.88	0.15071
3710.8	0.18573
3712.73	0.23602
3714.66	0.27893
3716.59	0.31565
3718.52	0.35769
3720.45	0.40551
3722.38	0.45604
3724.31	0.50530
3726.23	0.55001
3728.16	0.58673
3730.09	0.61226
3732.02	0.63427
3733.95	0.65796
3735.88	0.68167
3737.81	0.69908
3739.73	0.70900
3741.66	0.71661
3743.59	0.72443
3745.52	0.73487
3747.45	0.74284
3749.38	0.74853
3751.31	0.75670
3753.24	0.76465
3755.16	0.76982
3757.09	0.77373
3759.02	0.77827
3760.95	0.78292
3762.88	0.78674
3764.81	0.78996
3766.74	0.79321
3768.67	0.79643
3770.59	0.79953
3772.52	0.80242
3774.45	0.80474
3776.38	0.80731
3778.31	0.81014
3780.24	0.81265
3782.17	0.81407
3784.09	0.81527
3786.02	0.81704
3787.95	0.81871
3789.88	0.82025
3791.81	0.82152
3793.74	0.82260
3795.67	0.82349
3797.6	0.82459
3799.52	0.82576
3801.45	0.82660
3803.38	0.82774
3805.31	0.82877
3807.24	0.82970
3809.17	0.83042
3811.1	0.83122
3813.03	0.83208
3814.95	0.83287
3816.88	0.83352
3818.81	0.83399
3820.74	0.83461
3822.67	0.83516
3824.6	0.83582
3826.53	0.83636
3828.45	0.83674
3830.38	0.83691
3832.31	0.83707
3834.24	0.83780
3836.17	0.83855
3838.1	0.83891
3840.03	0.83929
3841.96	0.84020
3843.88	0.84137
3845.81	0.84250
3847.74	0.84330
3849.67	0.84367
3851.6	0.84356
3853.53	0.84282
3855.46	0.84367
3857.39	0.84506
3859.31	0.84584
3861.24	0.84635
3863.17	0.84686
3865.1	0.84763
3867.03	0.84838
3868.96	0.84887
3870.89	0.84899
3872.81	0.84947
3874.74	0.85054
3876.67	0.85164
3878.6	0.85237
3880.53	0.85294
3882.46	0.85385
3884.39	0.85466
3886.32	0.85524
3888.24	0.85582
3890.17	0.85635
3892.1	0.85684
3894.03	0.85770
3895.96	0.85871
3897.89	0.85953
3899.82	0.86030
3901.75	0.86081
3903.67	0.86123
3905.6	0.86193
3907.53	0.86280
3909.46	0.86357
3911.39	0.86424
3913.32	0.86505
3915.25	0.86600
3917.17	0.86700
3919.1	0.86781
3921.03	0.86850
3922.96	0.86923
3924.89	0.86992
3926.82	0.87072
3928.75	0.87173
3930.68	0.87279
3932.6	0.87365
3934.53	0.87415
3936.46	0.87461
3938.39	0.87527
3940.32	0.87585
3942.25	0.87624
3944.18	0.87686
3946.11	0.87776
3948.03	0.87870
3949.96	0.87941
3951.89	0.87993
3953.82	0.88047
3955.75	0.88101
3957.68	0.88162
3959.61	0.88240
3961.53	0.88333
3963.46	0.88403
3965.39	0.88458
3967.32	0.88527
3969.25	0.88593
3971.18	0.88647
3973.11	0.88711
3975.04	0.88787
3976.96	0.88859
3978.89	0.88916
3980.82	0.88970
3982.75	0.89040
3984.68	0.89106
3986.61	0.89140
3988.54	0.89168
3990.46	0.89216
3992.39	0.89276
3994.32	0.89338
3996.25	0.89388