File: Glass OH Content/UVVIS/URA/100% or 0 Absorbance Baseline.Correction.Raw.csv
nm, %R
3300, -8.741600
3297, 4.362300
3294, -11.5281
3291, -10.7509
3288, 23.2867
3285, -15.4965
3282, 7.495700
3279, -7.319300
3276, 10.658
3273, -27.0636
3270, 42.9962
3267, 100.355
3264, 2980.77
3261, 11482
3258, 484.774
3255, 225.671
3252, 130.375
3249, 99.3475
3246, 75.7316
3243, 72.0552
3240, 64.5752
3237, 52.4641
3234, 54.5049
3231, 49.3362
3228, 50.5985
3225, 46.2007
3222, 48.1185
3219, 44.0781
3216, 41.2352
3213, 42.5721
3210, 40.9872
3207, 39.0876
3204, 37.2652
3201, 37.1793
3198, 36.5678
3195, 35.128
3192, 35.1118
3189, 32.9695
3186, 32.551
3183, 32.0049
3180, 31.5396
3177, 29.9255
3174, 30.9588
3171, 29.7994
3168, 29.4018
3165, 29.9218
3162, 29.521
3159, 28.8756
3156, 28.7014
3153, 28.7698
3150, 28.2072
3147, 28.3755
3144, 27.8737
3141, 27.9526
3138, 27.8453
3135, 27.3348
3132, 27.2495
3129, 27.3452
3126, 27.0804
3123, 27.2304
3120, 26.7415
3117, 26.5046
3114, 26.8461
3111, 26.7263
3108, 26.8273
3105, 26.6609
3102, 26.5631
3099, 26.5806
3096, 26.5191
3093, 26.5772
3090, 26.6021
3087, 26.3132
3084, 26.3016
3081, 26.5631
3078, 26.3596
3075, 26.3826
3072, 26.3605
3069, 26.2512
3066, 26.4674
3063, 26.5541
3060, 26.6416
3057, 26.457
3054, 26.5143
3051, 26.5205
3048, 26.5745
3045, 26.6826
3042, 26.5105
3039, 26.4969
3036, 26.5125
3033, 26.5771
3030, 26.7113
3027, 26.7625
3024, 26.8925
3021, 26.9472
3018, 27.0323
3015, 27.0905
3012, 27.2555
3009, 27.3375
3006, 27.4427
3003, 27.6087
3000, 27.7097
2997, 28.3073
2994, 28.5506
2991, 28.6658
2988, 28.7762
2985, 29.0667
2982, 29.2079
2979, 29.5371
2976, 29.6083
2973, 29.7443
2970, 30.0056
2967, 30.1665
2964, 30.4196
2961, 30.5154
2958, 30.7317
2955, 31.0279
2952, 31.2631
2949, 31.4775
2946, 31.6692
2943, 31.8178
2940, 31.9846
2937, 32.1833
2934, 32.3039
2931, 32.6124
2928, 32.8109
2925, 33.0037
2922, 33.2148
2919, 33.3241
2916, 33.4496
2913, 33.5968
2910, 33.7855
2907, 33.95
2904, 34.1436
2901, 34.2181
2898, 34.2865
2895, 34.3561
2892, 34.4818
2889, 34.6693
2886, 34.8908
2883, 34.9741
2880, 35.0879
2877, 35.1625
2874, 35.2845
2871, 35.4169
2868, 35.4602
2865, 35.5553
2862, 35.6353
2859, 35.844
2856, 35.9405
2853, 35.9832
2850, 35.9749
2847, 36.0157
2844, 36.1055
2841, 36.2031
2838, 36.3288
2835, 36.3807
2832, 36.2727
2829, 36.2088
2826, 36.2845
2823, 36.4701
2820, 36.5525
2817, 36.6434
2814, 36.6641
2811, 36.7713
2808, 36.9502
2805, 37.1216
2802, 37.2225
2799, 37.0719
2796, 37.0916
2793, 37.4
2790, 37.9104
2787, 38.3614
2784, 38.6009
2781, 38.6968
2778, 38.6521
2775, 39.0729
2772, 39.3301
2769, 39.5742
2766, 39.8297
2763, 40.1352
2760, 39.9185
2757, 39.9183
2754, 39.8963
2751, 40.0087
2748, 40.402
2745, 40.8665
2742, 41.4646
2739, 41.7389
2736, 41.705
2733, 41.58
2730, 41.9501
2727, 42.746
2724, 43.6477
2721, 44.201
2718, 44.5249
2715, 44.4684
2712, 44.961
2709, 45.5989
2706, 46.4055
2703, 47.5154
2700, 48.8032
2697, 50.3298
2694, 52.1405
2691, 54.0125
2688, 56.0462
2685, 58.2993
2682, 60.8157
2679, 63.7357
2676, 66.4303
2673, 68.4126
2670, 69.8089
2667, 69.7881
2664, 69.303
2661, 69.0024
2658, 69.4289
2655, 70.1714
2652, 71.0508
2649, 71.8143
2646, 72.6699
2643, 73.3974
2640, 74.2246
2637, 75.1445
2634, 76.1255
2631, 76.6434
2628, 76.7807
2625, 76.5132
2622, 76.2393
2619, 76.2771
2616, 76.6221
2613, 76.8776
2610, 76.8428
2607, 76.6515
2604, 76.2462
2601, 76.1426
2598, 76.0689
2595, 76.1619
2592, 75.8579
2589, 75.6381
2586, 75.3062
2583, 74.6843
2580, 73.9696
2577, 73.9058
2574, 73.9517
2571, 73.979
2568, 74.0582
2565, 73.8431
2562, 73.3535
2559, 72.8243
2556, 72.6681
2553, 72.7879
2550, 72.9418
2547, 72.9458
2544, 72.8516
2541, 72.4556
2538, 72.0005
2535, 71.807
2532, 71.655
2529, 71.5065
2526, 71.2835
2523, 71.1703
2520, 71.0418
2517, 71.0145
2514, 70.9095
2511, 70.7572
2508, 70.6392
2505, 70.5331
2502, 70.469
2499, 70.4314
2496, 70.4186
2493, 70.3625
2490, 70.3422
2487, 70.3282
2484, 70.3201
2481, 70.3343
2478, 70.3253
2475, 70.4271
2472, 70.483
2469, 70.5447
2466, 70.6829
2463, 70.8179
2460, 70.9552
2457, 71.1594
2454, 71.4368
2451, 71.6836
2448, 71.9511
2445, 72.2708
2442, 72.5363
2439, 72.9076
2436, 73.2656
2433, 73.6065
2430, 74.0332
2427, 74.4725
2424, 74.8798
2421, 75.2924
2418, 75.6844
2415, 76.1003
2412, 76.4482
2409, 76.8223
2406, 77.188
2403, 77.5251
2400, 77.8981
2397, 78.2494
2394, 78.5831
2391, 78.9035
2388, 79.175
2385, 79.4637
2382, 79.7563
2379, 79.9804
2376, 80.1621
2373, 80.3999
2370, 80.5946
2367, 80.7405
2364, 80.9001
2361, 81.0296
2358, 81.09
2355, 81.1809
2352, 81.1442
2349, 81.1534
2346, 81.1015
2343, 81.0428
2340, 80.9714
2337, 80.8544
2334, 80.7698
2331, 80.6124
2328, 80.4276
2325, 80.228
2322, 79.9146
2319, 79.5946
2316, 79.2818
2313, 78.9183
2310, 78.5448
2307, 78.159
2304, 77.7049
2301, 77.3376
2298, 76.9306
2295, 76.5325
2292, 76.0721
2289, 75.6724
2286, 75.2177
2283, 74.8086
2280, 74.4316
2277, 74.078
2274, 73.6561
2271, 73.3434
2268, 72.9774
2265, 72.5999
2262, 72.2561
2259, 71.9546
2256, 71.6614
2253, 71.3812
2250, 71.1379
2247, 70.9005
2244, 70.6948
2241, 70.4823
2238, 70.3296
2235, 70.2184
2232, 70.082
2229, 70.0159
2226, 69.9418
2223, 69.9064
2220, 69.8884
2217, 69.9052
2214, 69.979
2211, 70.107
2208, 70.2823
2205, 70.5308
2202, 70.8081
2199, 71.1927
2196, 71.6305
2193, 72.0593
2190, 72.4909
2187, 72.923
2184, 73.3577
2181, 73.7868
2178, 74.187
2175, 74.6245
2172, 75.0183
2169, 75.418
2166, 75.7917
2163, 76.1874
2160, 76.5453
2157, 76.9295
2154, 77.3071
2151, 77.6383
2148, 77.9973
2145, 78.2938
2142, 78.5879
2139, 78.8583
2136, 79.088
2133, 79.3018
2130, 79.4912
2127, 79.6188
2124, 79.7332
2121, 79.8294
2118, 79.8788
2115, 79.8811
2112, 79.8653
2109, 79.79
2106, 79.6877
2103, 79.5625
2100, 79.3856
2097, 79.1886
2094, 78.9633
2091, 78.7012
2088, 78.4079
2085, 78.1065
2082, 77.7818
2079, 77.4307
2076, 77.0674
2073, 76.6997
2070, 76.3174
2067, 75.9296
2064, 75.5437
2061, 75.1681
2058, 74.7868
2055, 74.4073
2052, 74.0776
2049, 73.7288
2046, 73.4178
2043, 73.1403
2040, 72.8857
2037, 72.652
2034, 72.477
2031, 72.3194
2028, 72.1976
2025, 72.0913
2022, 72.0473
2019, 72.0335
2016, 72.0676
2013, 72.1083
2010, 72.2226
2007, 72.3523
2004, 72.4969
2001, 72.6909
1998, 72.909
1995, 73.1473
1992, 73.4102
1989, 73.6912
1986, 73.9651
1983, 74.2452
1980, 74.52
1977, 74.7933
1974, 75.0392
1971, 75.29
1968, 75.5052
1965, 75.7158
1962, 75.8843
1959, 76.0242
1956, 76.0984
1953, 76.1679
1950, 76.2104
1947, 76.2261
1944, 76.1774
1941, 76.062
1938, 75.8618
1935, 75.5572
1932, 75.2343
1929, 74.8818
1926, 74.5202
1923, 74.1379
1920, 73.7469
1917, 73.3504
1914, 72.9928
1911, 72.64
1908, 72.3223
1905, 71.9795
1902, 71.6445
1899, 71.3222
1896, 71.0115
1893, 70.8225
1890, 70.6548
1887, 70.5776
1884, 70.4666
1881, 70.314
1878, 70.0296
1875, 69.5331
1872, 68.9384
1869, 68.2809
1866, 67.7741
1863, 67.5324
1860, 67.4918
1857, 67.5375
1854, 67.5829
1851, 67.5773
1848, 67.492
1845, 67.3419
1842, 67.2704
1839, 67.207
1836, 67.2085
1833, 67.2968
1830, 67.5834
1827, 67.9044
1824, 68.308
1821, 68.7594
1818, 69.1704
1815, 69.5885
1812, 70.0494
1809, 70.5395
1806, 70.9961
1803, 71.472
1800, 71.8995
1797, 72.257
1794, 72.6035
1791, 72.8421
1788, 73.0074
1785, 73.0712
1782, 73.0382
1779, 72.9268
1776, 72.8028
1773, 72.6421
1770, 72.5455
1767, 72.4561
1764, 72.3559
1761, 72.3135
1758, 72.1791
1755, 72.0534
1752, 71.8986
1749, 71.7221
1746, 71.5239
1743, 71.3196
1740, 71.0796
1737, 70.8556
1734, 70.6213
1731, 70.3933
1728, 70.1454
1725, 69.9063
1722, 69.6658
1719, 69.4764
1716, 69.2829
1713, 69.1306
1710, 68.9867
1707, 68.8722
1704, 68.8025
1701, 68.7373
1698, 68.735
1695, 68.7484
1692, 68.8067
1689, 68.8899
1686, 68.9955
1683, 69.1426
1680, 69.3069
1677, 69.5083
1674, 69.7163
1671, 69.9428
1668, 69.9075
1665, 70.1675
1662, 70.4475
1659, 70.7328
1656, 71.0199
1653, 71.3105
1650, 71.5667
1647, 71.824
1644, 72.0671
1641, 72.2767
1638, 72.471
1635, 72.6367
1632, 72.7681
1629, 72.8758
1626, 72.9283
1623, 72.9579
1620, 72.9608
1617, 72.9228
1614, 72.8665
1611, 72.7832
1608, 72.6851
1605, 72.565
1602, 72.4533
1599, 72.3401
1596, 72.2359
1593, 72.1433
1590, 72.0532
1587, 72.0224
1584, 71.9802
1581, 71.9843
1578, 72.0139
1575, 72.0594
1572, 72.1402
1569, 72.231
1566, 72.354
1563, 72.499
1560, 72.6391
1557, 72.8119
1554, 72.9945
1551, 73.1677
1548, 73.358
1545, 73.5572
1542, 73.7811
1539, 74.0045
1536, 74.2306
1533, 74.4755
1530, 74.7276
1527, 75.0008
1524, 75.258
1521, 75.5257
1518, 75.8155
1515, 76.0897
1512, 76.3489
1509, 76.6143
1506, 76.8245
1503, 77.0399
1500, 77.202
1497, 77.3394
1494, 77.4381
1491, 77.5183
1488, 77.5242
1485, 77.51
1482, 77.4749
1479, 77.38
1476, 77.2994
1473, 77.2281
1470, 77.1641
1467, 77.1398
1464, 77.1818
1461, 77.2697
1458, 77.4189
1455, 77.5344
1452, 77.7088
1449, 77.8781
1446, 78.0792
1443, 78.2784
1440, 78.5076
1437, 78.7502
1434, 79.0123
1431, 79.2724
1428, 79.5175
1425, 79.773
1422, 79.9689
1419, 80.1454
1416, 80.2868
1413, 80.3402
1410, 80.3849
1407, 80.3719
1404, 80.3042
1401, 80.2367
1398, 80.171
1395, 80.1861
1392, 80.165
1389, 80.1211
1386, 80
1383, 79.816
1380, 79.6229
1377, 79.5239
1374, 79.5464
1371, 79.5531
1368, 79.4578
1365, 79.2842
1362, 79.069
1359, 78.9733
1356, 79.254
1353, 79.9097
1350, 80.8434
1347, 81.88
1344, 82.8995
1341, 83.8127
1338, 84.5745
1335, 85.1368
1332, 85.5518
1329, 85.8482
1326, 86.0392
1323, 86.138
1320, 86.1859
1317, 86.1669
1314, 86.119
1311, 86.0399
1308, 85.9509
1305, 85.8996
1302, 85.8366
1299, 85.7958
1296, 85.8037
1293, 85.8035
1290, 85.7806
1287, 85.7689
1284, 85.7435
1281, 85.6908
1278, 85.6329
1275, 85.5777
1272, 85.5674
1269, 85.5604
1266, 85.6248
1263, 85.7384
1260, 85.9094
1257, 86.1415
1254, 86.3747
1251, 86.6192
1248, 86.8199
1245, 86.9196
1242, 86.9342
1239, 86.8173
1236, 86.5915
1233, 86.2533
1230, 85.8546
1227, 85.4191
1224, 84.9949
1221, 84.6495
1218, 84.3499
1215, 84.1651
1212, 84.0793
1209, 84.0537
1206, 84.0945
1203, 84.1243
1200, 84.1672
1197, 84.1617
1194, 84.1281
1191, 84.0484
1188, 83.6327
1185, 83.6602
1182, 83.6943
1179, 83.7042
1176, 83.6702
1173, 83.5686
1170, 83.4253
1167, 83.2182
1164, 82.9664
1161, 82.6639
1158, 82.3129
1155, 81.9394
1152, 81.5472
1149, 81.1671
1146, 80.8134
1143, 80.4857
1140, 80.2356
1137, 80.0247
1134, 79.846
1131, 79.7056
1128, 79.6077
1125, 79.5131
1122, 79.4585
1119, 79.3911
1116, 79.3518
1113, 79.2997
1110, 79.2231
1107, 79.1055
1104, 78.8982
1101, 78.6163
1098, 78.289
1095, 77.9212
1092, 77.531
1089, 77.1499
1086, 76.786
1083, 76.459
1080, 76.1556
1077, 75.905
1074, 75.7095
1071, 75.534
1068, 75.4069
1065, 75.2973
1062, 75.1902
1059, 75.0769
1056, 74.9249
1053, 74.7286
1050, 74.4737
1047, 74.1616
1044, 73.824
1041, 73.4581
1038, 73.105
1035, 72.7351
1032, 72.3733
1029, 72.0366
1026, 71.7373
1023, 71.4731
1020, 71.263
1017, 71.0675
1014, 70.8972
1011, 70.7218
1008, 70.5439
1005, 70.3088
1002, 70.0581
999, 69.7272
996, 69.3571
993, 68.9589
990, 68.5388
987, 68.0982
984, 67.6771
981, 67.2776
978, 66.9158
975, 66.6018
972, 66.3227
969, 66.0809
966, 65.8542
963, 65.6143
960, 65.3405
957, 65.0319
954, 64.6904
951, 64.2704
948, 63.8308
945, 63.3401
942, 62.882
939, 62.4312
936, 62.0317
933, 61.6604
930, 61.3464
927, 61.0763
924, 60.8303
921, 60.5521
918, 60.3049
915, 60.0045
912, 59.678
909, 59.296
906, 58.9149
903, 58.4977
900, 58.0883
897, 57.7306
894, 57.4015
891, 57.1163
888, 170.754
885, 170.322
882, 169.835
879, 169.352
876, 168.893
873, 168.446
870, 167.984
867, 167.554
864, 167.141
861, 166.727
858, 166.385
855, 166.005
852, 165.723
849, 165.441
846, 165.192
843, 165.002
840, 164.808
837, 164.735
834, 164.624
831, 164.583
828, 164.571
825, 164.583
822, 164.628
819, 164.717
816, 164.8
813, 164.934
810, 165.035
807, 165.145
804, 165.305
801, 165.471
798, 165.655
795, 165.822
792, 166.003
789, 166.169
786, 166.336
783, 166.492
780, 166.644
777, 166.83
774, 166.966
771, 167.121
768, 167.255
765, 167.397
762, 167.505
759, 167.625
756, 167.722
753, 167.791
750, 167.907
747, 168.005
744, 168.086
741, 168.158
738, 168.215
735, 168.27
732, 168.335
729, 168.386
726, 168.435
723, 168.48
720, 168.503
717, 168.529
714, 168.556
711, 168.591
708, 168.582
705, 168.579
702, 168.614
699, 168.609
696, 168.607
693, 168.594
690, 168.606
687, 168.573
684, 168.556
681, 168.546
678, 168.525
675, 168.486
672, 168.433
669, 168.407
666, 168.383
663, 168.322
660, 168.255
657, 168.222
654, 168.178
651, 168.126
648, 168.046
645, 167.972
642, 167.915
639, 167.817
636, 167.737
633, 167.66
630, 167.565
627, 167.485
624, 167.373
621, 167.269
618, 167.153
615, 167.02
612, 166.918
609, 166.792
606, 166.691
603, 166.549
600, 166.39
597, 166.247
594, 166.097
591, 165.944
588, 165.793
585, 165.618
582, 165.438
579, 165.263
576, 165.099
573, 164.886
570, 164.685
567, 164.502
564, 164.319
561, 164.019
558, 163.752
555, 163.539
552, 163.287
549, 163.024
546, 162.791
543, 162.528
540, 162.282
537, 161.986
534, 161.72
531, 161.473
528, 161.218
525, 160.948
522, 160.749
519, 160.577
516, 160.45
513, 160.385
510, 160.386
507, 160.462
504, 160.599
501, 160.734
498, 160.86
495, 160.872
492, 160.718
489, 160.292
486, 159.569
483, 158.641
480, 157.888
477, 157.475
474, 157.132
471, 156.843
468, 156.62
465, 156.49
462, 156.457
459, 156.463
456, 156.436
453, 156.408
450, 156.267
447, 155.986
444, 155.508
441, 155.049
438, 154.615
435, 154.188
432, 153.773
429, 153.339
426, 152.911
423, 152.459
420, 152.014
417, 151.564
414, 151.089
411, 150.585
408, 150.121
405, 149.639
402, 149.115
399, 148.59
396, 148.076
393, 147.541
390, 147.013
387, 146.441
384, 145.914
381, 145.363
378, 144.21
375, 143.441
372, 143.097
369, 142.695
366, 142.245
363, 141.773
360, 141.26
357, 140.748
354, 140.241
351, 139.705
348, 139.226
345, 138.687
342, 138.181
339, 137.662
336, 137.073
333, 136.509
330, 135.976
327, 135.495
324, 135.002
321, 134.47
318, 133.522
315, 133.118
312, 132.871
309, 132.635
306, 132.427
303, 132.202
300, 131.969
297, 131.723
294, 131.535
291, 131.283
288, 131.084
285, 130.92
282, 130.931
279, 131.002
276, 131.266
273, 131.464
270, 132.09
267, 132.761
264, 133.531
261, 134.303
258, 135.12
255, 135.847
252, 136.454
250, 136.848