File: Glass OH Content/UVVIS/URA/Spectrosil 2000.Sample.Raw.csv
nm, %R
3300, 1.241900
3297, 219.128
3294, 0.593400
3291, -7.967200
3288, 54.1481
3285, 17.1871
3282, 282.366
3279, -33.5509
3276, -242.318
3273, -66.5197
3270, -93.9409
3267, -38.7451
3264, -7.095075
3261, -132.416
3258, 28.2608
3255, -0.874103
3252, 2.863963
3249, 13.1106
3246, 4.120077
3243, 10.4591
3240, 6.624215
3237, 5.329359
3234, 4.159259
3231, 0.368087
3228, 6.633793
3225, -1.072927
3222, 8.115797
3219, 1.130493
3216, -0.780159
3213, 6.119031
3210, 3.591365
3207, 3.538974
3204, 0.480609
3201, 3.529652
3198, 4.232959
3195, 2.143304
3192, 3.067060
3189, 0.497429
3186, 1.007957
3183, 2.509616
3180, 2.542518
3177, 3.192261
3174, 2.085029
3171, 2.911132
3168, 1.855329
3165, 2.021937
3162, 2.168626
3159, 2.823837
3156, 3.190437
3153, 2.183540
3150, 1.895261
3147, 2.219168
3144, 2.895920
3141, 1.900360
3138, 1.969453
3135, 2.554253
3132, 2.663902
3129, 2.623495
3126, 2.393613
3123, 2.097288
3120, 2.780323
3117, 2.207919
3114, 2.575048
3111, 2.093069
3108, 2.437815
3105, 2.416273
3102, 2.109317
3099, 2.262929
3096, 2.170134
3093, 2.610508
3090, 2.290797
3087, 2.208017
3084, 2.648128
3081, 2.549025
3078, 2.376364
3075, 2.392486
3072, 2.520817
3069, 2.421985
3066, 2.328147
3063, 3.137369
3060, 2.191685
3057, 2.513890
3054, 2.665731
3051, 2.998812
3048, 2.931758
3045, 2.907888
3042, 3.259840
3039, 3.033562
3036, 2.978595
3033, 3.351758
3030, 3.100186
3027, 3.751518
3024, 3.496514
3021, 4.219362
3018, 3.808777
3015, 3.527436
3012, 3.607345
3009, 3.850023
3006, 4.384408
3003, 4.015763
3000, 3.879147
2997, 5.593963
2994, 6.251357
2991, 5.882969
2988, 5.960134
2985, 6.132103
2982, 5.629299
2979, 6.161065
2976, 6.117204
2973, 5.707312
2970, 6.093196
2967, 6.082244
2964, 5.902444
2961, 5.805593
2958, 5.760827
2955, 5.899851
2952, 5.655229
2949, 5.881662
2946, 5.570081
2943, 5.671039
2940, 5.976314
2937, 5.656350
2934, 5.680119
2931, 5.883038
2928, 5.630141
2925, 5.731782
2922, 5.659826
2919, 5.679073
2916, 5.510380
2913, 5.521657
2910, 5.492593
2907, 5.549043
2904, 5.577326
2901, 5.441565
2898, 5.368002
2895, 5.309974
2892, 5.276697
2889, 5.341325
2886, 5.487406
2883, 5.309643
2880, 5.349422
2877, 5.188198
2874, 5.109326
2871, 5.120155
2868, 5.028172
2865, 5.076318
2862, 4.974000
2859, 4.928579
2856, 4.994087
2853, 4.797517
2850, 4.776942
2847, 4.694064
2844, 4.615640
2841, 4.713132
2838, 4.481568
2835, 4.507335
2832, 4.356996
2829, 4.043216
2826, 4.070609
2823, 4.134346
2820, 3.938718
2817, 3.835070
2814, 3.882817
2811, 3.665087
2808, 3.709046
2805, 3.747414
2802, 3.635973
2799, 3.478376
2796, 3.447681
2793, 3.402674
2790, 3.393000
2787, 3.319743
2784, 3.471422
2781, 3.385551
2778, 3.362301
2775, 3.466085
2772, 3.364599
2769, 3.404238
2766, 3.177528
2763, 3.703731
2760, 2.908676
2757, 3.357608
2754, 3.172224
2751, 3.420256
2748, 3.248602
2745, 3.106946
2742, 3.381197
2739, 3.205882
2736, 3.449706
2733, 3.254690
2730, 3.253866
2727, 3.352127
2724, 3.381392
2721, 3.296079
2718, 3.394954
2715, 3.417483
2712, 3.353351
2709, 3.393722
2706, 3.236685
2703, 3.154977
2700, 3.208396
2697, 3.385668
2694, 3.399469
2691, 3.528628
2688, 3.724249
2685, 3.901248
2682, 4.050270
2679, 4.253660
2676, 4.610095
2673, 4.828935
2670, 5.083736
2667, 5.097717
2664, 5.314056
2661, 5.183443
2658, 5.265099
2655, 5.281211
2652, 5.344627
2649, 5.392519
2646, 5.341551
2643, 5.419129
2640, 5.396594
2637, 5.415699
2634, 5.459931
2631, 5.437259
2628, 5.504769
2625, 5.565314
2622, 5.571929
2619, 5.546750
2616, 5.578547
2613, 5.555845
2610, 5.609244
2607, 5.600673
2604, 5.600541
2601, 5.663584
2598, 5.674067
2595, 5.637990
2592, 5.652674
2589, 5.521159
2586, 5.613748
2583, 5.659690
2580, 5.685849
2577, 5.662749
2574, 5.676272
2571, 5.726760
2568, 5.689714
2565, 5.713736
2562, 5.699115
2559, 5.718696
2556, 5.728373
2553, 5.708366
2550, 5.739919
2547, 5.705880
2544, 5.765968
2541, 5.739929
2538, 5.807460
2535, 5.773950
2532, 5.803084
2529, 5.997497
2526, 5.922268
2523, 5.932531
2520, 5.950581
2517, 5.933577
2514, 5.934889
2511, 5.906537
2508, 5.963969
2505, 5.936504
2502, 5.927287
2499, 5.952317
2496, 5.953825
2493, 5.948055
2490, 5.963703
2487, 5.951667
2484, 5.959605
2481, 5.963662
2478, 5.931151
2475, 5.975115
2472, 6.020743
2469, 6.011649
2466, 6.045168
2463, 5.969960
2460, 6.019150
2457, 6.015509
2454, 6.035405
2451, 6.048943
2448, 6.004078
2445, 6.051822
2442, 6.049661
2439, 6.068229
2436, 6.090989
2433, 5.993221
2430, 6.088214
2427, 6.119440
2424, 6.086688
2421, 6.083084
2418, 6.053559
2415, 6.107072
2412, 6.063845
2409, 6.100052
2406, 6.098746
2403, 6.045397
2400, 6.073576
2397, 6.124648
2394, 6.058555
2391, 6.087689
2388, 6.083739
2385, 6.116629
2382, 6.143214
2379, 6.131627
2376, 6.117604
2373, 6.095654
2370, 6.110459
2367, 6.093101
2364, 6.098633
2361, 6.143311
2358, 6.084597
2355, 6.167830
2352, 6.125392
2349, 6.127901
2346, 6.103586
2343, 6.093570
2340, 6.115246
2337, 6.096391
2334, 6.101909
2331, 6.114320
2328, 6.085349
2325, 6.158074
2322, 6.079740
2319, 6.070889
2316, 6.089292
2313, 6.067667
2310, 6.118164
2307, 6.077227
2304, 6.064611
2301, 6.080483
2298, 6.042199
2295, 6.096626
2292, 6.010088
2289, 6.058087
2286, 5.985825
2283, 6.000647
2280, 6.003767
2277, 6.045520
2274, 5.987284
2271, 6.017174
2268, 5.972260
2265, 5.998493
2262, 5.949255
2259, 5.951531
2256, 5.938204
2253, 5.934336
2250, 5.916256
2247, 5.897561
2244, 5.889118
2241, 5.878923
2238, 5.864103
2235, 5.881222
2232, 5.874690
2229, 5.875380
2226, 5.868737
2223, 5.846246
2220, 5.808975
2217, 5.795277
2214, 5.805742
2211, 5.807837
2208, 5.819815
2205, 5.850210
2202, 5.821933
2199, 5.884311
2196, 5.930714
2193, 5.963699
2190, 5.999236
2187, 6.028551
2184, 6.068211
2181, 6.098245
2178, 6.069931
2175, 6.137529
2172, 6.127572
2169, 6.132223
2166, 6.127188
2163, 6.165061
2160, 6.143682
2157, 6.145757
2154, 6.181321
2151, 6.146065
2148, 6.177137
2145, 6.181077
2142, 6.174487
2139, 6.174239
2136, 6.182607
2133, 6.192419
2130, 6.203580
2127, 6.182962
2124, 6.203564
2121, 6.181307
2118, 6.209032
2115, 6.191202
2112, 6.220098
2109, 6.197393
2106, 6.199577
2103, 6.205939
2100, 6.199109
2097, 6.206575
2094, 6.212126
2091, 6.211468
2088, 6.212002
2085, 6.200764
2082, 6.202222
2079, 6.211102
2076, 6.212095
2073, 6.222058
2070, 6.208414
2067, 6.210358
2064, 6.221432
2061, 6.216467
2058, 6.228238
2055, 6.223852
2052, 6.226984
2049, 6.214939
2046, 6.229552
2043, 6.229671
2040, 6.237163
2037, 6.229422
2034, 6.237289
2031, 6.236639
2028, 6.247576
2025, 6.243749
2022, 6.250755
2019, 6.233211
2016, 6.256764
2013, 6.232154
2010, 6.239875
2007, 6.246519
2004, 6.249095
2001, 6.247550
1998, 6.253000
1995, 6.249445
1992, 6.253491
1989, 6.259635
1986, 6.257275
1983, 6.251583
1980, 6.261406
1977, 6.257245
1974, 6.255131
1971, 6.262452
1968, 6.255066
1965, 6.259460
1962, 6.259002
1959, 6.256429
1956, 6.270303
1953, 6.257754
1950, 6.266992
1947, 6.254944
1944, 6.253167
1941, 6.256475
1938, 6.258090
1935, 6.242423
1932, 6.249410
1929, 6.247847
1926, 6.236027
1923, 6.247951
1920, 6.249076
1917, 6.251227
1914, 6.256644
1911, 6.250688
1908, 6.269989
1905, 6.240388
1902, 6.254911
1899, 6.265090
1896, 6.262929
1893, 6.252533
1890, 6.264401
1887, 6.257651
1884, 6.259703
1881, 6.257929
1878, 6.262495
1875, 6.249685
1872, 6.267044
1869, 6.271593
1866, 6.265520
1863, 6.271212
1860, 6.269058
1857, 6.276365
1854, 6.260903
1851, 6.279919
1848, 6.272743
1845, 6.281676
1842, 6.282852
1839, 6.290416
1836, 6.283431
1833, 6.277862
1830, 6.282608
1827, 6.289136
1824, 6.287697
1821, 6.274342
1818, 6.274794
1815, 6.282072
1812, 6.272716
1809, 6.295196
1806, 6.266823
1803, 6.278543
1800, 6.288639
1797, 6.295445
1794, 6.285096
1791, 6.266431
1788, 6.260598
1785, 6.297283
1782, 6.276168
1779, 6.254765
1776, 6.286709
1773, 6.276388
1770, 6.276475
1767, 6.293190
1764, 6.254224
1761, 6.290527
1758, 6.278272
1755, 6.278954
1752, 6.270359
1749, 6.281885
1746, 6.286290
1743, 6.280602
1740, 6.280986
1737, 6.268806
1734, 6.271054
1731, 6.296764
1728, 6.279956
1725, 6.281408
1722, 6.269504
1719, 6.295663
1716, 6.279616
1713, 6.298369
1710, 6.271209
1707, 6.291363
1704, 6.274191
1701, 6.282615
1698, 6.276715
1695, 6.289746
1692, 6.285725
1689, 6.291198
1686, 6.276496
1683, 6.293226
1680, 6.272680
1677, 6.280689
1674, 6.288199
1671, 6.268837
1668, 6.300612
1665, 6.284961
1662, 6.301288
1659, 6.296089
1656, 6.275847
1653, 6.293603
1650, 6.284487
1647, 6.288288
1644, 6.289971
1641, 6.293176
1638, 6.293138
1635, 6.278644
1632, 6.279537
1629, 6.293036
1626, 6.284803
1623, 6.292259
1620, 6.286389
1617, 6.288294
1614, 6.300701
1611, 6.290050
1608, 6.296614
1605, 6.287742
1602, 6.288326
1599, 6.282131
1596, 6.295762
1593, 6.296357
1590, 6.279527
1587, 6.290821
1584, 6.294787
1581, 6.282759
1578, 6.296423
1575, 6.281068
1572, 6.297598
1569, 6.288020
1566, 6.267933
1563, 6.305604
1560, 6.289588
1557, 6.287434
1554, 6.300201
1551, 6.299501
1548, 6.291611
1545, 6.279331
1542, 6.290364
1539, 6.301779
1536, 6.289185
1533, 6.292271
1530, 6.290982
1527, 6.304733
1524, 6.291424
1521, 6.292428
1518, 6.307022
1515, 6.295464
1512, 6.302514
1509, 6.296344
1506, 6.297861
1503, 6.291026
1500, 6.292195
1497, 6.292394
1494, 6.300645
1491, 6.293611
1488, 6.298807
1485, 6.288350
1482, 6.304235
1479, 6.296071
1476, 6.292546
1473, 6.306513
1470, 6.302801
1467, 6.290009
1464, 6.297858
1461, 6.292505
1458, 6.304533
1455, 6.299655
1452, 6.296584
1449, 6.301643
1446, 6.304112
1443, 6.298672
1440, 6.303721
1437, 6.299413
1434, 6.296994
1431, 6.298409
1428, 6.294715
1425, 6.295112
1422, 6.297448
1419, 6.289319
1416, 6.291570
1413, 6.282534
1410, 6.282648
1407, 6.276572
1404, 6.285599
1401, 6.258607
1398, 6.252136
1395, 6.252455
1392, 6.235140
1389, 6.218087
1386, 6.218250
1383, 6.222812
1380, 6.224340
1377, 6.238753
1374, 6.241514
1371, 6.263364
1368, 6.268359
1365, 6.294192
1362, 6.305758
1359, 6.303523
1356, 6.311480
1353, 6.305242
1350, 6.295257
1347, 6.304470
1344, 6.296781
1341, 6.300477
1338, 6.295751
1335, 6.295398
1332, 6.295718
1329, 6.294133
1326, 6.302592
1323, 6.307901
1320, 6.294881
1317, 6.306598
1314, 6.302442
1311, 6.301960
1308, 6.304297
1305, 6.310157
1302, 6.301508
1299, 6.295646
1296, 6.300311
1293, 6.304405
1290, 6.296295
1287, 6.302168
1284, 6.295171
1281, 6.299859
1278, 6.291157
1275, 6.302343
1272, 6.299011
1269, 6.306305
1266, 6.307869
1263, 6.296828
1260, 6.295237
1257, 6.304743
1254, 6.292004
1251, 6.298142
1248, 6.301896
1245, 6.298925
1242, 6.296141
1239, 6.296786
1236, 6.307317
1233, 6.298310
1230, 6.297624
1227, 6.311235
1224, 6.307790
1221, 6.311201
1218, 6.303979
1215, 6.306296
1212, 6.310590
1209, 6.306801
1206, 6.303861
1203, 6.311850
1200, 6.301267
1197, 6.305719
1194, 6.311565
1191, 6.304582
1188, 6.306983
1185, 6.313516
1182, 6.307359
1179, 6.314020
1176, 6.310730
1173, 6.316966
1170, 6.314871
1167, 6.314604
1164, 6.316774
1161, 6.318478
1158, 6.317722
1155, 6.317230
1152, 6.317446
1149, 6.317954
1146, 6.325065
1143, 6.314165
1140, 6.325372
1137, 6.326797
1134, 6.331939
1131, 6.318753
1128, 6.329790
1125, 6.327762
1122, 6.323301
1119, 6.325646
1116, 6.330165
1113, 6.332937
1110, 6.327195
1107, 6.328890
1104, 6.328915
1101, 6.328331
1098, 6.329242
1095, 6.329343
1092, 6.337078
1089, 6.333385
1086, 6.337614
1083, 6.335552
1080, 6.343854
1077, 6.322377
1074, 6.352439
1071, 6.334896
1068, 6.350347
1065, 6.338740
1062, 6.340055
1059, 6.338168
1056, 6.333942
1053, 6.349778
1050, 6.333511
1047, 6.340748
1044, 6.349967
1041, 6.342800
1038, 6.343068
1035, 6.342330
1032, 6.347783
1029, 6.348717
1026, 6.348162
1023, 6.347003
1020, 6.350561
1017, 6.362121
1014, 6.354130
1011, 6.348679
1008, 6.360862
1005, 6.354966
1002, 6.368286
999, 6.355052
996, 6.363011
993, 6.352770
990, 6.375659
987, 6.363017
984, 6.364930
981, 6.359175
978, 6.372187
975, 6.369047
972, 6.367352
969, 6.347220
966, 6.360414
963, 6.379859
960, 6.372005
957, 6.377486
954, 6.379927
951, 6.361404
948, 6.380932
945, 6.371319
942, 6.380204
939, 6.399845
936, 6.386735
933, 6.402975
930, 6.401028
927, 6.399700
924, 6.393195
921, 6.372694
918, 6.410590
915, 6.403186
912, 6.394819
909, 6.385928
906, 6.397533
903, 6.446920
900, 6.424013
897, 6.427094
894, 6.406627
891, 6.393271
888, 6.689093
885, 6.690375
882, 6.690078
879, 6.689924
876, 6.692115
873, 6.691581
870, 6.692903
867, 6.693122
864, 6.692198
861, 6.695356
858, 6.694614
855, 6.695750
852, 6.696793
849, 6.696276
846, 6.698767
843, 6.699208
840, 6.698530
837, 6.697678
834, 6.702190
831, 6.699611
828, 6.701484
825, 6.703167
822, 6.702452
819, 6.703611
816, 6.705987
813, 6.705652
810, 6.708044
807, 6.707023
804, 6.711787
801, 6.709695
798, 6.710388
795, 6.712057
792, 6.710232
789, 6.715195
786, 6.716273
783, 6.717504
780, 6.718290
777, 6.718448
774, 6.720150
771, 6.720081
768, 6.721673
765, 6.725210
762, 6.724261
759, 6.725019
756, 6.726945
753, 6.727711
750, 6.729844
747, 6.729637
744, 6.731392
741, 6.734008
738, 6.733101
735, 6.736780
732, 6.736911
729, 6.736918
726, 6.739276
723, 6.740432
720, 6.743037
717, 6.744343
714, 6.744896
711, 6.745623
708, 6.747585
705, 6.748693
702, 6.751393
699, 6.752352
696, 6.754033
693, 6.755804
690, 6.756165
687, 6.758314
684, 6.759573
681, 6.761165
678, 6.764140
675, 6.765449
672, 6.768373
669, 6.768111
666, 6.770707
663, 6.773192
660, 6.775842
657, 6.776335
654, 6.777280
651, 6.778785
648, 6.782250
645, 6.784861
642, 6.786065
639, 6.789594
636, 6.791509
633, 6.793813
630, 6.795918
627, 6.797385
624, 6.799587
621, 6.801359
618, 6.805933
615, 6.810310
612, 6.811001
609, 6.815567
606, 6.813917
603, 6.818550
600, 6.821556
597, 6.824416
594, 6.827577
591, 6.830216
588, 6.834249
585, 6.838814
582, 6.840762
579, 6.844887
576, 6.846939
573, 6.851699
570, 6.856949
567, 6.860350
564, 6.864639
561, 6.868546
558, 6.873736
555, 6.876888
552, 6.882720
549, 6.887150
546, 6.890123
543, 6.895813
540, 6.899779
537, 6.905218
534, 6.908258
531, 6.912318
528, 6.917789
525, 6.924220
522, 6.925477
519, 6.928568
516, 6.930820
513, 6.931371
510, 6.929591
507, 6.927430
504, 6.921703
501, 6.917432
498, 6.910850
495, 6.908926
492, 6.908925
489, 6.915117
486, 6.929993
483, 6.947186
480, 6.963670
477, 6.972036
474, 6.977678
471, 6.980880
468, 6.983978
465, 6.985060
462, 6.982868
459, 6.977688
456, 6.976633
453, 6.973570
450, 6.973120
447, 6.975259
444, 6.981750
441, 6.989993
438, 6.998230
435, 7.004552
432, 7.009288
429, 7.017654
426, 7.023903
423, 7.029019
420, 7.036895
417, 7.043705
414, 7.051752
411, 7.058387
408, 7.065315
405, 7.072235
402, 7.079622
399, 7.088720
396, 7.092926
393, 7.101895
390, 7.108365
387, 7.114264
384, 7.125107
381, 7.128686
378, 7.152154
375, 7.170474
372, 7.183254
369, 7.171019
366, 7.179806
363, 7.191511
360, 7.199723
357, 7.207354
354, 7.220061
351, 7.228446
348, 7.236097
345, 7.250510
342, 7.266717
339, 7.271277
336, 7.290046
333, 7.297666
330, 7.308874
327, 7.323381
324, 7.338421
321, 7.366751
318, 7.376088
315, 7.388424
312, 7.385590
309, 7.395872
306, 7.415504
303, 7.426962
300, 7.452612
297, 7.455646
294, 7.498162
291, 7.509409
288, 7.526559
285, 7.555583
282, 7.562985
279, 7.589960
276, 7.616039
273, 7.659213
270, 7.666486
267, 7.697899
264, 7.712534
261, 7.739303
258, 7.772294
255, 7.799221
252, 7.836543
250, 7.859838